#time,accel_x,accel_y,accel_z
2177.019362,19837.519246,-16876.695478,-85802.695776
2177.021922,-24722.878463,15248.242405,-69408.252119
2177.024481,32569.061448,-22058.137072,-85496.257577
2177.027041,-4441.235652,-1184.329507,-81972.218286
2177.029601,10807.006753,6957.935855,-73238.729609
2177.032161,-11547.212695,-3404.947333,-80899.684589
2177.034720,3256.906145,148.041188,-73238.729609
2177.037280,-2960.823768,-4145.153275,-81972.218286
2177.039840,2220.617826,7254.018232,-72932.291410
2177.042400,3997.112087,-3997.112087,-79367.493593
2177.044960,5033.400406,8142.265362,-75077.358804
2177.047519,-7698.141797,-2960.823768,-83351.190182
2177.050079,-14656.077652,1776.494261,-76149.892501
2177.052639,26055.249158,-23390.507767,-82738.313784
2177.055199,-15396.283594,14211.954086,-71093.662214
2177.057759,25315.043216,-9918.759623,-87334.886772
2177.060318,5181.441594,12731.542202,-70021.128517
2177.062878,28423.908173,-888.247130,-83197.971083
2177.065438,-22798.343014,13471.748144,-72166.195912
2177.067998,22798.343014,-10362.883188,-75996.673402
2177.070558,-26943.496289,-2220.617826,-70634.004916
2177.073117,22798.343014,-6809.894666,-73851.606007
2177.075677,-888.247130,-1036.288319,-77069.207099
2177.078237,5625.565159,-5921.647536,-75537.016103
2177.080797,-12731.542202,-9326.594869,-78907.836294
2177.083357,-11103.089130,6513.812290,-76149.892501
2177.085916,-1628.453072,-17468.860231,-83044.751983
2177.088476,-14804.118840,1480.411884,-71859.757712
2177.091036,17616.901420,-13027.624579,-85343.038477
2177.093596,-17764.942608,9178.553681,-75996.673402
2177.096156,12287.418637,-19985.560434,-84117.285680
2177.098715,-25759.166782,4441.235652,-72166.195912
2177.101275,8882.471304,-11991.336260,-79520.712692
2177.103835,-9030.512492,-888.247130,-71706.538613
2177.106395,17024.736666,-1776.494261,-71400.100414
2177.108955,-2960.823768,-4589.276840,-82431.875585
2177.111514,9770.718434,5477.523971,-71246.881314
2177.114074,-8290.306550,-6365.771101,-79827.150892
2177.116634,3108.864956,4441.235652,-65271.336430
2177.119194,-14656.077652,-3997.112087,-79367.493593
2177.121754,10955.047942,148.041188,-70634.004916
2177.124315,6365.771101,-6809.894666,-79061.055394
2177.126875,-17320.819043,8290.306550,-75690.235202
2177.129436,7698.141797,-17468.860231,-82738.313784
2177.131997,-27683.702231,8290.306550,-74464.482406
2177.134557,2812.782580,-20725.766376,-87028.448573
2177.137118,-14508.036463,-1036.288319,-67569.622924
2177.139678,15840.407159,-27091.537477,-86109.133975
2177.142239,-9178.553681,10066.800811,-69408.252119
2177.144799,21614.013506,-13619.789333,-81665.780087
2177.147360,-13619.789333,3701.029710,-73085.510509
2177.149920,-1776.494261,-12139.377449,-80593.246390
2177.152481,0.000000,17468.860231,-78294.959896
2177.155042,25463.084405,-5921.647536,-77988.521696
2177.157602,-41895.656317,-21465.972318,-85955.914876
2177.160163,3108.864956,18209.066173,-77069.207099
2177.162723,11399.171507,-39526.997303,-97447.347346
2177.165284,-80978.530055,5921.647536,-76762.768900
2177.167844,109698.520604,-9622.677246,-68029.280222
2177.170405,-55811.528027,1924.535449,-58070.038748
2177.172966,21910.095883,-9178.553681,-89633.173266
2177.175526,9918.759623,28127.825796,-69101.813920
2177.178087,9474.636058,-21910.095883,-91318.583362
2177.180647,-44116.274143,3552.988522,-78754.617194
2177.183208,34641.638086,4737.318029,-71553.319513
2177.185768,-6365.771101,-3404.947333,-76149.892501
2177.188329,8290.306550,-2220.617826,-75230.577904
2177.190889,9622.677246,-148.041188,-79061.055394
2177.193450,16876.695478,-3701.029710,-74158.044206
2177.196011,-20429.683999,10066.800811,-79367.493593
2177.198571,11251.130318,9770.718434,-78141.740796
2177.201132,-4885.359217,-11695.253884,-82585.094684
2177.203692,-29164.114115,14656.077652,-67876.061123
2177.206253,21762.054695,-19689.478057,-84117.285680
2177.208813,-10510.924376,18209.066173,-70327.566716
2177.211374,23094.425390,-17320.819043,-84270.504780
2177.213935,-24130.713709,16284.530724,-69867.909418
2177.216495,24426.796086,-10214.842000,-82738.313784
2177.219056,-18653.189738,19689.478057,-70021.128517
2177.221616,27387.619854,-11843.295072,-84730.162079
2177.224178,-13027.624579,11251.130318,-70021.128517
2177.226739,26795.455100,-11991.336260,-85036.600278
2177.229300,-18505.148550,4737.318029,-76609.549800
2177.231862,9326.594869,3256.906145,-71706.538613
2177.234423,2220.617826,1332.370696,-81512.560987
2177.236985,-9918.759623,1924.535449,-74158.044206
2177.239546,20133.601622,3997.112087,-73391.948708
2177.242107,-21317.931130,1036.288319,-74924.139704
2177.244669,19985.560434,1184.329507,-81206.122788
2177.247230,-30052.361245,5921.647536,-74311.263306
2177.249792,31976.896694,-5921.647536,-71400.100414
2177.252353,-27979.784608,-7105.977043,-76609.549800
2177.254915,-18209.066173,-25315.043216,-73698.386908
2177.257476,28275.866984,35825.967593,-59449.010645
2177.260037,11991.336260,-16284.530724,-88713.858668
2177.262599,-69875.440925,17764.942608,-87641.324971
2177.265160,77277.500345,-9030.512492,-68642.156621
2177.267722,-29164.114115,-7254.018232,-68795.375720
2177.270283,-14063.912898,-4885.359217,-90399.268764
2177.272844,34789.679274,-5921.647536,-66956.746525
2177.275406,11991.336260,-15396.283594,-62513.392637
2177.277967,-24722.878463,7994.224174,-78448.178995
2177.280529,28423.908173,8142.265362,-67569.622924
2177.283090,-23242.466579,-12731.542202,-85649.476676
2177.285651,-35381.844028,11843.295072,-74464.482406
2177.288213,26203.290347,-17616.901420,-85189.819378
2177.290774,-20873.807564,2516.700203,-74924.139704
2177.293336,20281.642811,-13767.830521,-79673.931792
2177.295897,-18505.148550,7550.100608,-73545.167808
2177.298459,-3404.947333,-17912.983796,-85036.600278
2177.301020,-11103.089130,10658.965565,-65118.117330
2177.303581,22798.343014,-16284.530724,-85496.257577
2177.306143,-10658.965565,-7550.100608,-84117.285680
2177.308704,10510.924376,3849.070898,-67109.965625
2177.311266,-4145.153275,-5773.606348,-74464.482406
2177.313827,2664.741391,444.123565,-71553.319513
2177.316388,-9622.677246,-2368.659014,-78754.617194
2177.318950,13915.871710,-6957.935855,-70327.566716
2177.321511,-13027.624579,-3849.070898,-81359.341888
2177.324073,9326.594869,-1036.288319,-75383.797003
2177.326634,-8438.347739,-7846.182985,-78907.836294
2177.329196,-17172.777854,15692.365970,-71553.319513
2177.331757,24722.878463,-19985.560434,-87028.448573
2177.334319,-27387.619854,6217.729913,-68335.718422
2177.336880,31680.814318,-27831.743419,-87947.763170
2177.339442,-32124.937883,8290.306550,-69867.909418
2177.342003,42191.738694,-22798.343014,-87334.886772
2177.344565,-42931.944636,2368.659014,-72932.291410
2177.347127,32569.061448,7105.977043,-79673.931792
2177.349688,-12435.459826,4441.235652,-76609.549800
2177.352250,-23390.507767,-3552.988522,-84117.285680
2177.354811,79498.118171,1776.494261,-83504.409282
2177.357373,-20577.725188,-11399.171507,-81359.341888
2177.359934,-70319.564490,-1628.453072,-77682.083497
2177.362496,82903.065504,5625.565159,-66190.651027
2177.365057,-24722.878463,-11251.130318,-74617.701505
2177.367619,-15988.448347,11251.130318,-80593.246390
2177.370180,42635.862259,-592.164754,-76149.892501
2177.372742,-25315.043216,-8586.388927,-74924.139704
2177.375304,13027.624579,-10362.883188,-81512.560987
2177.377865,2072.576638,9770.718434,-79214.274493
2177.380427,-14952.160028,-23242.466579,-79980.369991
2177.382988,-38934.832549,2960.823768,-74924.139704
2177.385550,49889.880491,-10214.842000,-74924.139704
2177.388111,-15840.407159,2812.782580,-71553.319513
2177.390673,25759.166782,444.123565,-79214.274493
2177.393234,8142.265362,11547.212695,-72319.415011
2177.395796,14508.036463,2664.741391,-70174.347617
2177.398357,-28127.825796,-6661.853478,-83044.751983
2177.400919,25463.084405,4293.194464,-67416.403824
2177.403481,-1332.370696,-6661.853478,-85955.914876
2177.406042,13175.665768,9622.677246,-71246.881314
2177.408604,15100.201217,-7846.182985,-79673.931792
2177.411165,-19689.478057,8882.471304,-75843.454302
2177.413727,1036.288319,-14804.118840,-81665.780087
2177.416288,-17912.983796,9918.759623,-68948.594820
2177.418850,22354.219448,-16728.654289,-86262.353075
2177.421411,-27387.619854,12731.542202,-71093.662214
2177.423973,46632.974346,-17172.777854,-80133.589091
2177.426534,-18801.230927,20281.642811,-68488.937521
2177.429096,15988.448347,-17912.983796,-89479.954166
2177.431658,-17912.983796,6069.688724,-76915.987999
2177.434220,25315.043216,-1184.329507,-72012.976812
2177.436782,-1480.411884,7698.141797,-81665.780087
2177.439344,29756.278868,-15544.324782,-81359.341888
2177.441906,-34937.720462,592.164754,-70940.443115
2177.444468,52258.539505,592.164754,-70787.224015
2177.447030,-64545.958142,-11695.253884,-84576.942979
2177.449592,-592.164754,11843.295072,-75996.673402
2177.452154,40563.285622,-9030.512492,-76149.892501
2177.454716,-35529.885216,-1480.411884,-69867.909418
2177.457278,-14063.912898,-13767.830521,-98673.100142
2177.459840,7550.100608,15544.324782,-49489.769171
2177.462402,3849.070898,-37602.461854,-92697.555258
2177.464963,-22058.137072,16284.530724,-71093.662214
2177.467525,31088.649564,-24722.878463,-83504.409282
2177.470087,-46336.891969,592.164754,-71553.319513
2177.472649,60548.846056,-2368.659014,-76609.549800
2177.475211,-21910.095883,8882.471304,-77528.864398
2177.477773,-14804.118840,740.205942,-77528.864398
2177.480335,16136.489536,2072.576638,-68029.280222
2177.482897,17172.777854,2960.823768,-70021.128517
2177.485459,-8438.347739,-11843.295072,-81665.780087
2177.488021,-3849.070898,1332.370696,-75537.016103
2177.490583,5477.523971,-11843.295072,-81665.780087
2177.493145,-17468.860231,8142.265362,-69101.813920
2177.495707,444.123565,-22502.260637,-84117.285680
2177.498269,-23242.466579,9030.512492,-74770.920605
2177.500831,10807.006753,-23390.507767,-84117.285680
2177.503392,-15396.283594,3997.112087,-71246.881314
2177.505954,21169.889941,-24130.713709,-86568.791274
2177.508516,-17764.942608,-2368.659014,-76456.330700
2177.511078,13619.789333,-7698.141797,-74770.920605
2177.513640,-14804.118840,2220.617826,-76609.549800
2177.516202,19245.354492,-6809.894666,-75996.673402
2177.518763,-7846.182985,-11103.089130,-78601.398095
2177.521325,20873.807564,-1480.411884,-70634.004916
2177.523887,-6957.935855,-1332.370696,-79520.712692
2177.526449,5773.606348,3404.947333,-70634.004916
2177.529010,-23982.672521,-16876.695478,-82585.094684
2177.531572,-35825.967593,1480.411884,-73085.510509
2177.534134,38194.626607,148.041188,-81972.218286
2177.536696,-55811.528027,8882.471304,-72779.072310
2177.539258,8290.306550,-6217.729913,-84270.504780
2177.541819,47077.097911,3552.988522,-73698.386908
2177.544381,-55367.404462,-36270.091158,-91931.459760
2177.546943,36566.173535,34493.596897,-59142.572446
2177.549505,-1184.329507,-28275.866984,-89633.173266
2177.552066,-46632.974346,17764.942608,-73851.606007
2177.554628,82310.900750,-1628.453072,-80746.465489
2177.557190,13471.748144,2664.741391,-81206.122788
2177.559752,-27239.578666,-3404.947333,-84730.162079
2177.562314,15692.365970,20281.642811,-71706.538613
2177.564875,9770.718434,-7698.141797,-68948.594820
2177.567437,-26647.413912,-5921.647536,-79827.150892
2177.569999,30200.402434,2072.576638,-74924.139704
2177.572561,-2220.617826,-7402.059420,-78754.617194
2177.575123,-38194.626607,14063.912898,-69714.690318
2177.577684,23686.590144,-14359.995275,-86415.572174
2177.580246,-22502.260637,15692.365970,-67722.842023
2177.582808,24278.754898,-21910.095883,-88713.858668
2177.585370,-3997.112087,-8586.388927,-84730.162079
2177.587931,31532.773129,5329.482782,-67876.061123
2177.590493,-12879.583391,-5921.647536,-91471.802461
2177.593055,18653.189738,8290.306550,-69408.252119
2177.595617,-9030.512492,1332.370696,-82585.094684
2177.598179,2072.576638,2072.576638,-72625.853210
2177.600740,7698.141797,-5181.441594,-79980.369991
2177.603302,10955.047942,3108.864956,-75843.454302
2177.605864,-4885.359217,-1776.494261,-83044.751983
2177.608426,-2072.576638,4589.276840,-73085.510509
2177.610987,21169.889941,-8882.471304,-85189.819378
2177.613550,-16580.613101,9770.718434,-71400.100414
2177.616112,15544.324782,-21169.889941,-87488.105872
2177.618674,-7550.100608,14359.995275,-68182.499322
2177.621237,25907.207970,-4293.194464,-85649.476676
2177.623799,-12287.418637,1924.535449,-78448.178995
2177.626361,888.247130,-20725.766376,-77682.083497
2177.628923,34197.514520,10066.800811,-68182.499322
2177.631486,-26795.455100,-13619.789333,-82431.875585
2177.634048,-23242.466579,7402.059420,-79520.712692
2177.636610,72836.264693,10807.006753,-71400.100414
2177.639172,-14656.077652,-15248.242405,-81512.560987
2177.641735,-34789.679274,12139.377449,-79673.931792
2177.644297,21465.972318,1332.370696,-67876.061123
2177.646859,-17320.819043,-14508.036463,-75230.577904
2177.649421,-8734.430116,-12879.583391,-89633.173266
2177.651984,8586.388927,-15692.365970,-78754.617194
2177.654546,-20281.642811,-21614.013506,-82125.437386
2177.657108,-2812.782580,15988.448347,-71859.757712
2177.659671,11991.336260,-16580.613101,-85802.695776
2177.662233,-34493.596897,3552.988522,-70480.785816
2177.664795,12731.542202,-8882.471304,-82891.532884
2177.667357,8882.471304,-148.041188,-72319.415011
2177.669920,16136.489536,-11843.295072,-78294.959896
2177.672482,-19393.395680,2812.782580,-75230.577904
2177.675044,19541.436869,5477.523971,-72012.976812
2177.677606,-17024.736666,-3256.906145,-80440.027290
2177.680169,9178.553681,2516.700203,-67416.403824
2177.682731,-1332.370696,-5033.400406,-78141.740796
2177.685293,11991.336260,148.041188,-69561.471218
2177.687855,-6957.935855,-14656.077652,-82891.532884
2177.690418,-10807.006753,-1924.535449,-73085.510509
2177.692980,6661.853478,-17024.736666,-83197.971083
2177.695542,-27683.702231,12583.501014,-72319.415011
2177.698105,8882.471304,-22650.301825,-81665.780087
2177.700667,-15248.242405,10066.800811,-69714.690318
2177.703229,21910.095883,-27683.702231,-91318.583362
2177.705791,-21465.972318,7994.224174,-67109.965625
2177.708354,11251.130318,-24130.713709,-87641.324971
2177.710916,-8142.265362,3404.947333,-68488.937521
2177.713478,9326.594869,-14211.954086,-77222.426198
2177.716040,-5181.441594,11251.130318,-72779.072310
2177.718603,47225.139100,-2072.576638,-72472.634111
2177.721165,-40859.367998,2368.659014,-82278.656485
2177.723727,48261.427418,18949.272115,-75383.797003
2177.726289,-52702.663070,-17172.777854,-86875.229473
2177.728851,-35085.761651,1036.288319,-77988.521696
2177.731413,91045.330866,-10066.800811,-77222.426198
2177.733976,-42191.738694,-7402.059420,-66803.527426
2177.736538,-16580.613101,-17320.819043,-85189.819378
2177.739100,34197.514520,20281.642811,-60674.763442
2177.741662,22058.137072,-29312.155303,-84730.162079
2177.744224,-56107.610404,18653.189738,-70021.128517
2177.746787,51222.251186,-19245.354492,-84730.162079
2177.749349,-15100.201217,2220.617826,-71246.881314
2177.751911,19097.313304,-11103.089130,-86262.353075
2177.754473,-2368.659014,17024.736666,-62666.611736
2177.757035,14804.118840,-10510.924376,-85036.600278
2177.759598,-23538.548956,11547.212695,-75077.358804
2177.762160,10955.047942,4589.276840,-72779.072310
2177.764722,-1924.535449,-11695.253884,-87641.324971
2177.767284,4885.359217,9770.718434,-71246.881314
2177.769846,4293.194464,-14508.036463,-91931.459760
2177.772408,-3552.988522,9622.677246,-72166.195912
2177.774971,-1776.494261,-148.041188,-78141.740796
2177.777533,-11991.336260,5773.606348,-76609.549800
2177.780095,11695.253884,-13027.624579,-81972.218286
2177.782657,-7254.018232,7698.141797,-73238.729609
2177.785219,15840.407159,-14359.995275,-82278.656485
2177.787782,-18061.024985,14359.995275,-69561.471218
2177.790344,11695.253884,-11399.171507,-84270.504780
2177.792906,-148.041188,13915.871710,-69408.252119
2177.795468,8438.347739,-10955.047942,-81359.341888
2177.798030,888.247130,6365.771101,-76609.549800
2177.800593,24426.796086,6809.894666,-73238.729609
2177.803155,12435.459826,1776.494261,-77222.426198
2177.805717,-3256.906145,-17616.901420,-75383.797003
2177.808279,-3404.947333,9474.636058,-79061.055394
2177.810841,16728.654289,-20725.766376,-81052.903688
2177.813404,-34493.596897,-34493.596897,-78754.617194
2177.815966,-15988.448347,14952.160028,-79214.274493
2177.818527,35381.844028,-34641.638086,-93923.308055
2177.821089,-18505.148550,4885.359217,-59602.229744
2177.823651,7402.059420,-12583.501014,-87794.544071
2177.826213,-35825.967593,1184.329507,-75077.358804
2177.828774,-14804.118840,-17616.901420,-94229.746254
2177.831336,21465.972318,1924.535449,-61594.078039
2177.833898,9918.759623,-38786.791361,-92084.678860
2177.836460,-35529.885216,17320.819043,-71706.538613
2177.839021,24574.837274,1184.329507,-76915.987999
2177.841583,-13027.624579,-5773.606348,-76762.768900
2177.844145,-5773.606348,-2960.823768,-75230.577904
2177.846707,-1480.411884,-3256.906145,-81818.999186
2177.849268,23094.425390,2812.782580,-70021.128517
2177.851830,-9474.636058,-8142.265362,-85955.914876
2177.854392,2960.823768,9622.677246,-67876.061123
2177.856954,-7105.977043,-3404.947333,-79980.369991
2177.859515,-6661.853478,-2960.823768,-72166.195912
2177.862077,5033.400406,-26943.496289,-85343.038477
2177.864639,-17024.736666,4737.318029,-68182.499322
2177.867201,18653.189738,-21465.972318,-86722.010374
2177.869762,-23242.466579,13027.624579,-71093.662214
2177.872324,19689.478057,-23834.631332,-85649.476676
2177.874886,-31680.814318,2960.823768,-69561.471218
2177.877447,12731.542202,-18801.230927,-85496.257577
2177.880009,-16728.654289,10955.047942,-67263.184724
2177.882571,33457.308578,-14211.954086,-80133.589091
2177.885133,-33753.390955,-444.123565,-74617.701505
2177.887694,3997.112087,11251.130318,-67876.061123
2177.890256,23834.631332,-5921.647536,-77375.645298
2177.892818,-39526.997303,9326.594869,-67416.403824
2177.895380,41747.615129,16728.654289,-83504.409282
2177.897941,-22502.260637,-6809.894666,-85036.600278
2177.900503,-32569.061448,1184.329507,-82585.094684
2177.903065,81866.777185,-13471.748144,-66037.431928
2177.905627,-50630.086433,-26647.413912,-79980.369991
2177.908188,11843.295072,24426.796086,-83351.190182
2177.910750,8142.265362,2960.823768,-83351.190182
2177.913312,-56551.733969,5033.400406,-66956.746525
2177.915874,21169.889941,-16136.489536,-89326.735067
2177.918435,32272.979071,14063.912898,-66190.651027
2177.920997,4293.194464,-13027.624579,-73698.386908
2177.923559,-27239.578666,16876.695478,-70480.785816
2177.926120,45744.727216,-14063.912898,-84270.504780
2177.928682,-19985.560434,2664.741391,-70480.785816
2177.931244,21169.889941,-1776.494261,-79520.712692
2177.933805,1924.535449,5921.647536,-73698.386908
2177.936367,13323.706956,7402.059420,-69867.909418
2177.938929,-13915.871710,-4589.276840,-81052.903688
2177.941490,740.205942,5329.482782,-71400.100414
2177.944052,3256.906145,-10066.800811,-81665.780087
2177.946614,-13619.789333,9030.512492,-71706.538613
2177.949175,24870.919651,-8882.471304,-81512.560987
2177.951737,-14508.036463,10955.047942,-74924.139704
2177.954299,6069.688724,-7254.018232,-83810.847481
2177.956860,-9326.594869,10362.883188,-70787.224015
2177.959422,3256.906145,-21317.931130,-83504.409282
2177.961984,-8586.388927,15248.242405,-74770.920605
2177.964545,47077.097911,-15544.324782,-83197.971083
2177.967107,-17024.736666,3404.947333,-75996.673402
2177.969669,24278.754898,-2516.700203,-76456.330700
2177.972230,6513.812290,11695.253884,-77222.426198
2177.974792,1628.453072,-7846.182985,-73391.948708
2177.977354,-17024.736666,10807.006753,-76149.892501
2177.979916,43524.109390,-18949.272115,-77682.083497
2177.982477,-38194.626607,-7402.059420,-75077.358804
2177.985039,47669.262665,27979.784608,-65118.117330
2177.987601,-32865.143825,-9326.594869,-81206.122788
2177.990162,-50926.168810,-2664.741391,-61594.078039
2177.992724,-27535.661042,-7698.141797,-100664.948437
2177.995286,26499.372724,16432.571912,-46731.825378
2177.997847,33605.349767,-32569.061448,-81972.218286
2178.000409,-40415.244433,11991.336260,-85802.695776
2178.002971,35381.844028,-16136.489536,-74464.482406
2178.005532,-32421.020260,-5181.441594,-72472.634111
2178.008094,16136.489536,6217.729913,-72319.415011
2178.010656,1924.535449,-2960.823768,-78141.740796
2178.013217,5773.606348,7994.224174,-72012.976812
2178.015779,-11843.295072,-4441.235652,-80593.246390
2178.018341,-8438.347739,5773.606348,-72472.634111
2178.020902,5625.565159,-17468.860231,-81512.560987
2178.023464,-25315.043216,14211.954086,-65271.336430
2178.026026,6365.771101,-23242.466579,-81665.780087
2178.028588,-17468.860231,5625.565159,-76456.330700
2178.031150,18505.148550,-24278.754898,-86875.229473
2178.033712,-28868.031738,8734.430116,-67263.184724
2178.036274,9178.553681,-28571.949361,-90705.706963
2178.038836,-22058.137072,16876.695478,-66803.527426
2178.041398,23242.466579,-7105.977043,-74464.482406
2178.043960,-19541.436869,-5181.441594,-73085.510509
2178.046521,27387.619854,-2368.659014,-70940.443115
2178.049083,-3552.988522,-2072.576638,-79061.055394
2178.051645,14508.036463,-1332.370696,-70021.128517
2178.054207,-29016.072926,-6661.853478,-84117.285680
2178.056769,27239.578666,-4145.153275,-72319.415011
2178.059331,-24278.754898,-13915.871710,-85343.038477
2178.061893,13915.871710,17320.819043,-69255.033019
2178.064455,55071.322085,-16728.654289,-83810.847481
2178.067017,-54627.198520,14952.160028,-69561.471218
2178.069579,30200.402434,5329.482782,-81052.903688
2178.072141,-49889.880491,-3849.070898,-77988.521696
2178.074702,-14804.118840,-18653.189738,-93923.308055
2178.077264,55663.486838,18949.272115,-65730.993728
2178.079826,-25611.125593,-22058.137072,-95149.060852
2178.082388,-15396.283594,29904.320057,-72012.976812
2178.084950,50334.004056,-18357.107362,-89020.296868
2178.087512,-49001.633360,13175.665768,-69561.471218
2178.090074,-8586.388927,2072.576638,-75996.673402
2178.092636,23538.548956,2664.741391,-73851.606007
2178.095198,9770.718434,-3701.029710,-70174.347617
2178.097760,-14211.954086,7550.100608,-79980.369991
2178.100322,22946.384202,7846.182985,-69408.252119
2178.102883,-13915.871710,-9326.594869,-84730.162079
2178.105445,-6217.729913,6809.894666,-70174.347617
2178.108007,2960.823768,-6217.729913,-82431.875585
2178.110569,-1776.494261,1776.494261,-72319.415011
2178.113131,5329.482782,-14952.160028,-78907.836294
2178.115693,-19541.436869,18061.024985,-71093.662214
2178.118255,33457.308578,-9474.636058,-82891.532884
2178.120817,-30496.484810,22946.384202,-64198.802732
2178.123379,21021.848753,-17616.901420,-89939.611465
2178.125940,-11103.089130,13767.830521,-68488.937521
2178.128502,35825.967593,-16136.489536,-82278.656485
2178.131063,-22206.178260,16432.571912,-68948.594820
2178.133625,34937.720462,-6661.853478,-80286.808190
2178.136186,-16136.489536,11103.089130,-69867.909418
2178.138748,18505.148550,-3404.947333,-76149.892501
2178.141310,-18061.024985,9474.636058,-80286.808190
2178.143871,25907.207970,3849.070898,-72932.291410
2178.146433,-12435.459826,-28571.949361,-86415.572174
2178.148994,-13915.871710,14804.118840,-73851.606007
2178.151556,41895.656317,-24278.754898,-85649.476676
2178.154117,-69431.317360,-9178.553681,-70787.224015
2178.156679,38046.585419,6513.812290,-75537.016103
2178.159240,-26943.496289,-5033.400406,-81665.780087
2178.161802,-8142.265362,-13323.706956,-85189.819378
2178.164363,3256.906145,17616.901420,-60521.544342
2178.166925,38638.750172,-20429.683999,-77682.083497
2178.169486,-16580.613101,5329.482782,-69561.471218
2178.172048,17172.777854,-13915.871710,-80133.589091
2178.174610,-17024.736666,-6957.935855,-71859.757712
2178.177171,15840.407159,-11991.336260,-81665.780087
2178.179733,148.041188,3552.988522,-79520.712692
2178.182294,19985.560434,-1480.411884,-71859.757712
2178.184856,-23982.672521,-296.082377,-81206.122788
2178.187417,11991.336260,2220.617826,-68335.718422
2178.189979,-1628.453072,-11695.253884,-81206.122788
2178.192540,-15100.201217,6069.688724,-71246.881314
2178.195102,7402.059420,-17912.983796,-84730.162079
2178.197663,-16876.695478,4737.318029,-74004.825107
2178.200225,3404.947333,-25315.043216,-87641.324971
2178.202787,-23242.466579,6069.688724,-72012.976812
2178.205348,12583.501014,-19097.313304,-81818.999186
2178.207910,-35529.885216,9918.759623,-70940.443115
2178.210471,20429.683999,-28719.990550,-86568.791274
2178.213033,-13027.624579,6365.771101,-69714.690318
2178.215594,21021.848753,-6513.812290,-71553.319513
2178.218156,-15840.407159,6069.688724,-78141.740796
2178.220717,-3404.947333,-9326.594869,-75077.358804
2178.223279,-8290.306550,4145.153275,-74770.920605
2178.225840,30644.525999,-8438.347739,-67722.842023
2178.228402,-20429.683999,7402.059420,-76915.987999
2178.230963,48261.427418,3108.864956,-74924.139704
2178.233525,-36862.255912,-6809.894666,-83810.847481
2178.236087,296.082377,14211.954086,-77528.864398
2178.238648,14211.954086,-24870.919651,-79827.150892
2178.241210,-70023.482113,6069.688724,-55618.533155
2178.243771,49889.880491,5477.523971,-90092.830565
2178.246333,-20281.642811,26499.372724,-81665.780087
2178.248894,-26055.249158,-13471.748144,-90705.706963
2178.251456,32865.143825,19097.313304,-65118.117330
2178.254017,18801.230927,-29016.072926,-83504.409282
2178.256579,-53294.827824,16136.489536,-69867.909418
2178.259141,57736.063476,-9622.677246,-81665.780087
2178.261702,-11843.295072,6957.935855,-67263.184724
2178.264264,15396.283594,-10955.047942,-84883.381178
2178.266825,-11251.130318,5329.482782,-78294.959896
2178.269387,12731.542202,8290.306550,-66497.089226
2178.271948,-11251.130318,-9030.512492,-81206.122788
2178.274510,592.164754,9178.553681,-72625.853210
2178.277071,9770.718434,-4885.359217,-83044.751983
2178.279633,-2220.617826,6513.812290,-72779.072310
2178.282194,9030.512492,-3997.112087,-82585.094684
2178.284756,-7550.100608,9770.718434,-76456.330700
2178.287318,-7254.018232,-2516.700203,-79061.055394
2178.289879,-8142.265362,4885.359217,-65118.117330
2178.292441,39378.956114,-13619.789333,-87794.544071
2178.295002,-16432.571912,9030.512492,-67876.061123
2178.297564,22502.260637,-13027.624579,-83351.190182
2178.300125,-12879.583391,15692.365970,-67416.403824
2178.302687,22650.301825,-6217.729913,-81359.341888
2178.305248,-22946.384202,17320.819043,-71553.319513
2178.307810,50037.921679,-2812.782580,-71706.538613
2178.310371,-26647.413912,-16876.695478,-79980.369991
2178.312933,17616.901420,13027.624579,-76762.768900
2178.315495,35529.885216,-18357.107362,-69561.471218
2178.318056,-39082.873738,-10066.800811,-68029.280222
2178.320618,-41599.573940,-5773.606348,-93616.869856
2178.323179,43228.027013,-18357.107362,-74770.920605
2178.325741,10658.965565,-27239.578666,-69561.471218
2178.328302,-36566.173535,9030.512492,-78601.398095
2178.330863,21762.054695,-23538.548956,-81818.999186
2178.333424,-18061.024985,7698.141797,-67416.403824
2178.335986,12435.459826,-27239.578666,-86875.229473
2178.338547,-34197.514520,4885.359217,-64505.240932
2178.341108,7402.059420,-26795.455100,-82891.532884
2178.343669,-21317.931130,10066.800811,-76149.892501
2178.346230,34197.514520,-9770.718434,-75230.577904
2178.348791,-11547.212695,-296.082377,-75690.235202
2178.351352,7402.059420,-296.082377,-74924.139704
2178.353913,-12583.501014,-6661.853478,-83044.751983
2178.356474,11399.171507,4441.235652,-69561.471218
2178.359035,-8142.265362,-3849.070898,-84270.504780
2178.361596,17764.942608,-2812.782580,-71400.100414
2178.364157,-12435.459826,-888.247130,-78294.959896
2178.366719,1480.411884,3256.906145,-68948.594820
2178.369280,-1184.329507,-18801.230927,-82891.532884
2178.371841,-20133.601622,3552.988522,-68488.937521
2178.374402,15248.242405,-22798.343014,-82585.094684
2178.376963,-23242.466579,5773.606348,-71859.757712
2178.379524,30348.443622,-19689.478057,-86262.353075
2178.382085,-44560.397708,3849.070898,-72472.634111
2178.384646,26055.249158,-15840.407159,-84117.285680
2178.387207,-32421.020260,888.247130,-72779.072310
2178.389768,21910.095883,-9326.594869,-81818.999186
2178.392329,33161.226202,6513.812290,-84117.285680
2178.394890,-4589.276840,-5033.400406,-72319.415011
2178.397451,-9030.512492,5921.647536,-82738.313784
2178.400013,42931.944636,-10807.006753,-65884.212828
2178.402574,-72540.182316,-2516.700203,-87028.448573
2178.405135,63213.587447,11251.130318,-72779.072310
2178.407696,-3404.947333,4441.235652,-81206.122788
2178.410257,-39971.120868,7550.100608,-66497.089226
2178.412818,23242.466579,0.000000,-82278.656485
2178.415379,-12287.418637,9326.594869,-82585.094684
2178.417940,5033.400406,-16284.530724,-76149.892501
2178.420501,-27091.537477,2516.700203,-76456.330700
2178.423062,45004.521274,-6809.894666,-73851.606007
2178.425623,-5033.400406,1776.494261,-75537.016103
2178.428184,13915.871710,2812.782580,-74924.139704
2178.430746,-2812.782580,2664.741391,-75996.673402
2178.433306,10658.965565,-444.123565,-74770.920605
2178.435866,-19689.478057,-3701.029710,-86415.572174
2178.438427,24130.713709,4145.153275,-67416.403824
2178.440987,296.082377,-3701.029710,-82125.437386
2178.443548,-18061.024985,14656.077652,-74311.263306
2178.446108,16580.613101,-7698.141797,-83197.971083
2178.448669,-21910.095883,13619.789333,-70327.566716
2178.451229,17172.777854,-12879.583391,-83810.847481
2178.453789,-23538.548956,9178.553681,-72166.195912
2178.456350,25463.084405,-22798.343014,-85955.914876
2178.458910,-19689.478057,19837.519246,-67416.403824
2178.461471,35233.802839,-14211.954086,-83810.847481
2178.464031,-28423.908173,28868.031738,-64811.679131
2178.466592,45004.521274,-8586.388927,-81665.780087
2178.469152,-11695.253884,-22206.178260,-85802.695776
2178.471712,-15544.324782,10510.924376,-65884.212828
2178.474273,43228.027013,3849.070898,-74158.044206
2178.476833,-10510.924376,-13767.830521,-69408.252119
2178.479394,-24278.754898,6809.894666,-89173.515967
2178.481954,24426.796086,-13915.871710,-77069.207099
2178.484515,-8438.347739,-14804.118840,-71706.538613
2178.487075,-22650.301825,5921.647536,-75383.797003
2178.489635,2664.741391,-23242.466579,-85955.914876
2178.492196,4145.153275,888.247130,-69867.909418
2178.494756,17172.777854,-16284.530724,-87181.667672
2178.497317,-14952.160028,8142.265362,-63126.269035
2178.499877,3849.070898,-21465.972318,-88254.201370
2178.502438,-33161.226202,16580.613101,-71400.100414
2178.504998,37454.420665,-23538.548956,-83657.628382
2178.507558,-14508.036463,9178.553681,-65730.993728
2178.510119,22354.219448,-10066.800811,-81818.999186
2178.512679,-7105.977043,3552.988522,-74311.263306
2178.515240,10214.842000,-5329.482782,-75383.797003
2178.517800,-19837.519246,-8734.430116,-79214.274493
2178.520361,-740.205942,444.123565,-73698.386908
2178.522921,-5181.441594,-5329.482782,-80286.808190
2178.525481,-740.205942,-5329.482782,-74004.825107
2178.528042,-6661.853478,-9030.512492,-77682.083497
2178.530602,-11103.089130,1628.453072,-77222.426198
2178.533163,-6069.688724,-8586.388927,-81206.122788
2178.535726,-11399.171507,-1036.288319,-73238.729609
2178.538286,-1480.411884,-22650.301825,-86262.353075
2178.540847,888.247130,-888.247130,-74924.139704
2178.543407,2220.617826,-27387.619854,-86722.010374
2178.545967,-21021.848753,17764.942608,-63892.364533
2178.548528,36714.214723,-13027.624579,-76456.330700
2178.551088,-41303.491564,17764.942608,-70940.443115
2178.553649,54183.074954,7698.141797,-78141.740796
2178.556209,-38046.585419,-12879.583391,-79367.493593
2178.558769,-2072.576638,-740.205942,-87641.324971
2178.561330,64545.958142,-1480.411884,-71553.319513
2178.563890,-24426.796086,-8734.430116,-67109.965625
2178.566451,7994.224174,24426.796086,-81359.341888
2178.569011,-2960.823768,-2664.741391,-73391.948708
2178.571571,-22502.260637,-6513.812290,-83197.971083
2178.574132,-6957.935855,14063.912898,-77988.521696
2178.576692,21465.972318,-8142.265362,-78294.959896
2178.579252,-24870.919651,4885.359217,-77375.645298
2178.581813,10807.006753,-12287.418637,-84270.504780
2178.584373,-17024.736666,9918.759623,-69408.252119
2178.586934,18505.148550,-22206.178260,-83810.847481
2178.589494,-24574.837274,14359.995275,-75077.358804
2178.592054,38342.667796,-22946.384202,-90705.706963
2178.594615,-26351.331535,-888.247130,-77682.083497
2178.597175,11103.089130,1924.535449,-72472.634111
2178.599736,-2368.659014,740.205942,-82738.313784
2178.602296,10214.842000,148.041188,-72932.291410
2178.604856,9474.636058,1184.329507,-81206.122788
2178.607417,22206.178260,8438.347739,-68795.375720
2178.609977,-1332.370696,-1036.288319,-86109.133975
2178.612538,1480.411884,3701.029710,-70787.224015
2178.615098,-8438.347739,-3849.070898,-81359.341888
2178.617658,13915.871710,7254.018232,-70634.004916
2178.620219,10955.047942,-24574.837274,-88254.201370
2178.622779,-22502.260637,19985.560434,-66803.527426
2178.625340,55219.363273,-28423.908173,-87028.448573
2178.627900,-66322.452403,6957.935855,-66037.431928
2178.630460,38638.750172,-296.082377,-80133.589091
2178.633021,-28127.825796,1184.329507,-74158.044206
2178.635581,-15248.242405,-20725.766376,-96374.813648
2178.638141,14656.077652,9622.677246,-61440.858940
2178.640700,10955.047942,-28571.949361,-98060.223744
2178.643260,-35085.761651,7994.224174,-78907.836294
2178.645819,0.000000,3552.988522,-75230.577904
2178.648379,-11399.171507,-4145.153275,-75383.797003
2178.650939,2960.823768,3256.906145,-66343.870127
2178.653498,-6809.894666,-7402.059420,-82891.532884
2178.656058,4737.318029,-888.247130,-72319.415011
2178.658617,-2072.576638,-9474.636058,-85189.819378
2178.661177,888.247130,6365.771101,-71859.757712
2178.663737,-13027.624579,-9030.512492,-84117.285680
2178.666296,-6957.935855,-592.164754,-72012.976812
2178.668856,4589.276840,-13767.830521,-78448.178995
2178.671415,-15840.407159,6513.812290,-71246.881314
2178.673975,20429.683999,-17320.819043,-79980.369991
2178.676535,-26943.496289,148.041188,-79367.493593
2178.679094,15840.407159,-21910.095883,-80286.808190
2178.681654,-25463.084405,1480.411884,-70480.785816
2178.684213,21762.054695,-13175.665768,-79061.055394
2178.686773,-10807.006753,5921.647536,-74158.044206
2178.689333,30052.361245,-7254.018232,-77682.083497
2178.691892,-20429.683999,-3256.906145,-76149.892501
2178.694452,29312.155303,-10510.924376,-72625.853210
2178.697011,-11251.130318,-14508.036463,-84730.162079
2178.699571,-7994.224174,9770.718434,-71400.100414
2178.702131,15692.365970,-13915.871710,-83197.971083
2178.704690,-19097.313304,11991.336260,-66190.651027
2178.707250,41895.656317,5033.400406,-87794.544071
2178.709809,-61141.010809,-3849.070898,-73545.167808
2178.712369,15100.201217,-7105.977043,-79214.274493
2178.714929,20133.601622,6217.729913,-78601.398095
2178.717488,-38194.626607,-15544.324782,-91471.802461
2178.720048,-31976.896694,10807.006753,-76915.987999
2178.722607,61881.216751,-8882.471304,-74924.139704
2178.725167,-22058.137072,7254.018232,-74158.044206
2178.727727,17616.901420,4145.153275,-78601.398095
2178.730286,11399.171507,5477.523971,-68948.594820
2178.732846,-592.164754,-2072.576638,-71093.662214
2178.735405,-13027.624579,-1628.453072,-83657.628382
2178.737965,40859.367998,-444.123565,-66190.651027
2178.740524,-5329.482782,-4145.153275,-82738.313784
2178.743084,8142.265362,10955.047942,-70174.347617
2178.745643,5033.400406,-8290.306550,-83197.971083
2178.748203,-15396.283594,7698.141797,-72625.853210
2178.750762,9770.718434,-10362.883188,-76915.987999
2178.753321,-7994.224174,10362.883188,-74617.701505
2178.755881,15396.283594,-11991.336260,-87028.448573
2178.758440,-14656.077652,19245.354492,-75077.358804
2178.760999,23538.548956,-19097.313304,-83964.066581
2178.763559,-37750.503042,13471.748144,-67569.622924
2178.766118,18653.189738,-13915.871710,-88254.201370
2178.768678,-11103.089130,10362.883188,-67569.622924
2178.771237,18061.024985,-7254.018232,-69561.471218
2178.773796,8734.430116,14359.995275,-74464.482406
2178.776356,9918.759623,-14952.160028,-84270.504780
2178.778915,-40119.162056,12435.459826,-77222.426198
2178.781475,56551.733969,-1628.453072,-62666.611736
2178.784034,-39082.873738,-16580.613101,-74158.044206
2178.786593,2220.617826,6957.935855,-86415.572174
2178.789153,17764.942608,-15544.324782,-76149.892501
2178.791712,18209.066173,-4737.318029,-61287.639840
2178.794272,-32124.937883,1924.535449,-88407.420469
2178.796831,-9622.677246,5921.647536,-64505.240932
2178.799390,5773.606348,-31088.649564,-91165.364262
2178.801950,-25018.960840,16432.571912,-67263.184724
2178.804509,29312.155303,-30200.402434,-90858.926063
2178.807068,-29164.114115,12879.583391,-67416.403824
2178.809628,20577.725188,-20725.766376,-85649.476676
2178.812187,-25315.043216,12435.459826,-66497.089226
2178.814747,17024.736666,-18505.148550,-84270.504780
2178.817306,-17616.901420,8734.430116,-63739.145434
2178.819865,31680.814318,-13915.871710,-77835.302597
2178.822425,-6809.894666,-6365.771101,-81512.560987
2178.824984,2960.823768,296.082377,-70634.004916
2178.827544,-3552.988522,-19541.436869,-81818.999186
2178.830103,-23982.672521,-1924.535449,-72472.634111
2178.832662,10214.842000,-21021.848753,-82585.094684
2178.835222,-13915.871710,6661.853478,-75230.577904
2178.837781,23686.590144,-25167.002028,-83810.847481
2178.840341,-32421.020260,16580.613101,-67876.061123
2178.842900,15840.407159,-25611.125593,-83964.066581
2178.845458,-37750.503042,19245.354492,-62973.049936
2178.848017,33605.349767,3404.947333,-69408.252119
2178.850576,-37158.338288,-740.205942,-81665.780087
2178.853135,38490.708984,10214.842000,-74770.920605
2178.855694,18357.107362,-12879.583391,-84730.162079
2178.858253,-10214.842000,1184.329507,-64045.583633
2178.860812,44708.438897,10510.924376,-76609.549800
2178.863371,-27535.661042,-4885.359217,-58070.038748
2178.865930,0.000000,-5625.565159,-87028.448573
2178.868489,37454.420665,15396.283594,-77835.302597
2178.871048,-18505.148550,-3701.029710,-81818.999186
2178.873607,-31384.731941,23834.631332,-62973.049936
2178.876166,48409.468607,-13323.706956,-81665.780087
2178.878725,-34493.596897,8882.471304,-75383.797003
2178.881284,14952.160028,-22650.301825,-88560.639569
2178.883843,-5921.647536,12583.501014,-65271.336430
2178.886402,27091.537477,-23538.548956,-89479.954166
2178.888961,-22354.219448,16876.695478,-70327.566716
2178.891520,33013.185013,-11399.171507,-80593.246390
2178.894079,-25315.043216,9770.718434,-69408.252119
2178.896638,22206.178260,-7698.141797,-80593.246390
2178.899197,2516.700203,-592.164754,-84576.942979
2178.901756,15840.407159,5329.482782,-69561.471218
2178.904315,-1480.411884,6513.812290,-83351.190182
2178.906874,3701.029710,10658.965565,-75077.358804
2178.909433,4589.276840,-444.123565,-80133.589091
2178.911992,-14508.036463,1036.288319,-72319.415011
2178.914551,-2220.617826,-7698.141797,-81359.341888
2178.917110,9326.594869,6809.894666,-78294.959896
2178.919669,-2072.576638,-6365.771101,-79367.493593
2178.922228,4293.194464,14063.912898,-70480.785816
2178.924787,54627.198520,-26499.372724,-86875.229473
2178.927346,-59956.681302,2368.659014,-64505.240932
2178.929905,26943.496289,5329.482782,-76609.549800
2178.932464,-11251.130318,-11695.253884,-76456.330700
2178.935023,23686.590144,-17024.736666,-82125.437386
2178.937582,2220.617826,5625.565159,-72012.976812
2178.940141,6661.853478,-16432.571912,-81665.780087
2178.942700,-30200.402434,0.000000,-83657.628382
2178.945258,32272.979071,-2220.617826,-65884.212828
2178.947817,-15100.201217,-10214.842000,-79827.150892
2178.950376,-6661.853478,7550.100608,-64658.460031
2178.952935,2368.659014,-9178.553681,-86875.229473
2178.955493,-13175.665768,7254.018232,-66037.431928
2178.958052,6957.935855,-21169.889941,-85649.476676
2178.960611,-30496.484810,14508.036463,-67569.622924
2178.963170,15544.324782,-23834.631332,-85955.914876
2178.965728,-22502.260637,9770.718434,-72932.291410
2178.968287,19097.313304,-22946.384202,-83044.751983
2178.970846,-21910.095883,8734.430116,-74004.825107
2178.973405,12287.418637,-27831.743419,-88713.858668
2178.975963,-26795.455100,-10955.047942,-77835.302597
2178.978522,12879.583391,-3552.988522,-73545.167808
2178.981081,2960.823768,-9474.636058,-82125.437386
2178.983640,14952.160028,148.041188,-65424.555529
2178.986199,-4885.359217,740.205942,-82738.313784
2178.988757,-3256.906145,-3701.029710,-71093.662214
2178.991316,-7105.977043,0.000000,-80133.589091
2178.993875,-3997.112087,-2516.700203,-71246.881314
2178.996434,-7105.977043,-2072.576638,-79367.493593
2178.998992,21465.972318,-444.123565,-73085.510509
2179.001551,9770.718434,-27831.743419,-88407.420469
2179.004110,-12731.542202,25018.960840,-64658.460031
2179.006669,39675.038491,-27239.578666,-82125.437386
2179.009227,-59660.598925,12435.459826,-64505.240932
2179.011786,49889.880491,2368.659014,-78907.836294
2179.014345,-29608.237680,17172.777854,-75230.577904
2179.016904,2516.700203,-11103.089130,-88867.077768
2179.019462,27091.537477,9622.677246,-67722.842023
2179.022021,17616.901420,-14804.118840,-77222.426198
2179.024580,-28571.949361,21021.848753,-70634.004916
2179.027138,18209.066173,7402.059420,-69255.033019
2179.029696,-2812.782580,-4441.235652,-82278.656485
2179.032254,-740.205942,6069.688724,-70021.128517
2179.034812,2960.823768,-7402.059420,-82738.313784
2179.037371,6069.688724,6069.688724,-73698.386908
2179.039929,-7698.141797,-4441.235652,-79827.150892
2179.042487,-7994.224174,7550.100608,-74924.139704
2179.045045,14063.912898,-9030.512492,-78294.959896
2179.047603,-15396.283594,10066.800811,-72166.195912
2179.050161,35529.885216,-6957.935855,-84117.285680
2179.052719,-23538.548956,15100.201217,-73545.167808
2179.055278,26055.249158,-14508.036463,-84270.504780
2179.057836,-10214.842000,20725.766376,-62053.735338
2179.060394,17764.942608,-14211.954086,-80746.465489
2179.062952,-1776.494261,18801.230927,-72779.072310
2179.065510,31384.731941,-17764.942608,-81818.999186
2179.068068,-25018.960840,9326.594869,-74924.139704
2179.070626,54479.157331,-7846.182985,-77375.645298
2179.073184,-43968.232955,-8882.471304,-74770.920605
2179.075743,-38934.832549,6661.853478,-73545.167808
2179.078301,30200.402434,-1924.535449,-73238.729609
2179.080859,-24870.919651,-4441.235652,-76915.987999
2179.083417,1036.288319,148.041188,-83810.847481
2179.085975,-3701.029710,4589.276840,-59908.667944
2179.088533,-2664.741391,-31384.731941,-91625.021561
2179.091091,-37898.544230,18357.107362,-67876.061123
2179.093649,26647.413912,-29460.196492,-83810.847481
2179.096208,-38342.667796,15100.201217,-66650.308326
2179.098766,16136.489536,-18949.272115,-91318.583362
2179.101324,-3256.906145,-2072.576638,-78754.617194
2179.103882,14359.995275,-3701.029710,-73391.948708
2179.106440,-16876.695478,-4737.318029,-82431.875585
2179.108998,8586.388927,10362.883188,-68488.937521
2179.111556,-3997.112087,-9918.759623,-83810.847481
2179.114114,9030.512492,592.164754,-64045.583633
2179.116673,-10362.883188,-6069.688724,-83964.066581
2179.119231,0.000000,-2516.700203,-72012.976812
2179.121789,-5329.482782,-7994.224174,-78448.178995
2179.124347,-444.123565,148.041188,-72625.853210
2179.126905,7698.141797,-22502.260637,-84270.504780
2179.129463,-19393.395680,10510.924376,-68642.156621
2179.132021,5773.606348,-28719.990550,-88560.639569
2179.134579,-16728.654289,14211.954086,-70327.566716
2179.137137,16136.489536,-27979.784608,-89020.296868
2179.139695,-24278.754898,21169.889941,-62819.830836
2179.142253,26351.331535,-22058.137072,-82585.094684
2179.144811,-33753.390955,22354.219448,-67109.965625
2179.147369,63657.711012,-4293.194464,-84117.285680
2179.149927,6513.812290,-17024.736666,-80899.684589
2179.152485,-17616.901420,6513.812290,-63279.488135
2179.155043,45892.768404,13323.706956,-77682.083497
2179.157601,-8734.430116,2220.617826,-65424.555529
2179.160159,-19689.478057,5181.441594,-81972.218286
2179.162717,25167.002028,6661.853478,-70787.224015
2179.165275,-15544.324782,-1924.535449,-80899.684589
2179.167833,4737.318029,5477.523971,-75537.016103
2179.170391,13915.871710,-4737.318029,-83351.190182
2179.172948,-17764.942608,6069.688724,-74617.701505
2179.175506,12435.459826,-22946.384202,-84883.381178
2179.178064,-20281.642811,14359.995275,-65271.336430
2179.180622,31976.896694,-17320.819043,-87794.544071
2179.183180,-17912.983796,14656.077652,-70021.128517
2179.185738,33901.432144,-9178.553681,-81206.122788
2179.188296,-4293.194464,4589.276840,-77682.083497
2179.190854,18357.107362,-2812.782580,-77375.645298
2179.193412,-2220.617826,13323.706956,-76915.987999
2179.195970,18653.189738,-3108.864956,-73545.167808
2179.198528,-13323.706956,-4589.276840,-84576.942979
2179.201086,148.041188,2812.782580,-72319.415011
2179.203644,16580.613101,-296.082377,-77069.207099
2179.206202,-20577.725188,11991.336260,-70634.004916
2179.208760,15248.242405,4737.318029,-78294.959896
2179.211318,-23538.548956,-11547.212695,-75537.016103
2179.213876,4589.276840,-1924.535449,-81359.341888
2179.216434,3997.112087,-7254.018232,-78141.740796
2179.218992,-17912.983796,-37898.544230,-89020.296868
2179.221550,-13767.830521,21317.931130,-74158.044206
2179.224108,18949.272115,-27535.661042,-80746.465489
2179.226666,-24870.919651,-7105.977043,-77988.521696
2179.229224,16580.613101,296.082377,-73085.510509
2179.231782,5773.606348,-8882.471304,-76609.549800
2179.234340,18505.148550,-11547.212695,-72012.976812
2179.236898,-11103.089130,1184.329507,-80593.246390
2179.239455,7846.182985,-6957.935855,-73085.510509
2179.242013,-13767.830521,-3404.947333,-78907.836294
2179.244571,-21169.889941,5625.565159,-76456.330700
2179.247129,15692.365970,-22502.260637,-80440.027290
2179.249687,-11547.212695,4145.153275,-72472.634111
2179.252245,22650.301825,-20281.642811,-85496.257577
2179.254803,-27979.784608,7402.059420,-72932.291410
2179.257361,9770.718434,-15840.407159,-75843.454302
2179.259919,-23242.466579,-4293.194464,-76456.330700
2179.262477,26055.249158,-11547.212695,-77682.083497
2179.265035,-888.247130,-6217.729913,-80593.246390
2179.267593,15988.448347,-7254.018232,-71553.319513
2179.270151,-11399.171507,1776.494261,-79061.055394
2179.272708,-3108.864956,-6661.853478,-71706.538613
2179.275266,-7698.141797,3108.864956,-76303.111601
2179.277824,7846.182985,-1628.453072,-75077.358804
2179.280382,-10510.924376,-5181.441594,-82738.313784
2179.282940,11843.295072,8290.306550,-77528.864398
2179.285498,-3552.988522,-24278.754898,-85955.914876
2179.288056,-18061.024985,22206.178260,-72779.072310
2179.290614,26351.331535,-25018.960840,-83044.751983
2179.293172,-53146.786636,12287.418637,-61900.516238
2179.295730,60548.846056,-2220.617826,-80593.246390
2179.298288,-21169.889941,22354.219448,-72012.976812
2179.300846,-11251.130318,-9178.553681,-92544.336158
2179.303404,-13915.871710,16284.530724,-74464.482406
2179.305962,25315.043216,-6809.894666,-76456.330700
2179.308519,-17024.736666,2072.576638,-75537.016103
2179.311077,23390.507767,2812.782580,-73545.167808
2179.313635,4737.318029,-2368.659014,-81512.560987
2179.316193,10214.842000,2368.659014,-72166.195912
2179.318751,-11695.253884,-2664.741391,-81359.341888
2179.321309,10955.047942,8290.306550,-64198.802732
2179.323867,-9622.677246,-7550.100608,-84117.285680
2179.326425,444.123565,5625.565159,-74770.920605
2179.328983,32717.102636,-16876.695478,-85496.257577
2179.331541,-11399.171507,22058.137072,-67876.061123
2179.334098,9326.594869,-13915.871710,-89479.954166
2179.336656,-23242.466579,14359.995275,-67263.184724
2179.339214,21169.889941,-17764.942608,-85343.038477
2179.341771,-21465.972318,15248.242405,-67722.842023
2179.344329,41007.409187,-7550.100608,-85036.600278
2179.346887,-6069.688724,4441.235652,-71859.757712
2179.349444,14359.995275,-10214.842000,-79673.931792
2179.352002,10214.842000,13175.665768,-73851.606007
2179.354559,0.000000,-17912.983796,-77528.864398
2179.357117,-46336.891969,-2812.782580,-79214.274493
2179.359675,24722.878463,6217.729913,-72779.072310
2179.362232,-3552.988522,-16284.530724,-78754.617194
2179.364790,-2220.617826,7846.182985,-70634.004916
2179.367348,-740.205942,-4885.359217,-77988.521696
2179.369905,-26795.455100,-9326.594869,-77069.207099
2179.372463,-13323.706956,-8290.306550,-83810.847481
2179.375020,-296.082377,-2960.823768,-70174.347617
2179.377578,25759.166782,-26351.331535,-88407.420469
2179.380136,-10214.842000,15988.448347,-66037.431928
2179.382693,20133.601622,-14952.160028,-81818.999186
2179.385251,-20725.766376,5033.400406,-70787.224015
2179.387809,8438.347739,444.123565,-77682.083497
2179.390366,-12435.459826,1184.329507,-79214.274493
2179.392924,20429.683999,-6661.853478,-70021.128517
2179.395481,-13915.871710,-3552.988522,-81206.122788
2179.398039,16136.489536,-4737.318029,-71859.757712
2179.400597,-8142.265362,-7105.977043,-80899.684589
2179.403154,-14508.036463,1184.329507,-75077.358804
2179.405712,-4737.318029,-13767.830521,-81052.903688
2179.408270,-17912.983796,1628.453072,-71706.538613
2179.410827,4589.276840,-23686.590144,-81665.780087
2179.413385,-18209.066173,14211.954086,-69714.690318
2179.415942,21169.889941,-24130.713709,-89020.296868
2179.418500,-40859.367998,18209.066173,-65118.117330
2179.421058,40415.244433,-22502.260637,-89326.735067
2179.423615,-52110.498317,8438.347739,-73545.167808
2179.426173,39823.079680,-6069.688724,-90092.830565
2179.428731,36566.173535,296.082377,-73238.729609
2179.431288,-5625.565159,-1332.370696,-67722.842023
2179.433846,4589.276840,11991.336260,-85649.476676
2179.436403,27387.619854,11695.253884,-69867.909418
2179.438961,-35825.967593,-6217.729913,-90399.268764
2179.441519,22798.343014,4441.235652,-73085.510509
2179.444076,1924.535449,-10658.965565,-86262.353075
2179.446634,7550.100608,7994.224174,-65730.993728
2179.449192,740.205942,7698.141797,-82431.875585
2179.451749,4885.359217,6809.894666,-75383.797003
2179.454307,14063.912898,-30200.402434,-92084.678860
2179.456864,-29904.320057,15248.242405,-64658.460031
2179.459422,29312.155303,-22058.137072,-87794.544071
2179.461980,-18505.148550,18949.272115,-71553.319513
2179.464537,30200.402434,-17468.860231,-86109.133975
2179.467095,-4737.318029,19541.436869,-72932.291410
2179.469653,18061.024985,-8734.430116,-84270.504780
2179.472210,-31384.731941,15692.365970,-69255.033019
2179.474768,33753.390955,-13323.706956,-81206.122788
2179.477325,-11547.212695,2664.741391,-86568.791274
2179.479883,25759.166782,8734.430116,-68642.156621
2179.482441,-15544.324782,-3256.906145,-85496.257577
2179.484998,2664.741391,10362.883188,-76915.987999
2179.487556,3256.906145,-14952.160028,-85496.257577
2179.490113,-38638.750172,4145.153275,-66037.431928
2179.492671,18209.066173,5477.523971,-79367.493593
2179.495229,-17024.736666,-15840.407159,-74770.920605
2179.497786,18949.272115,-9474.636058,-81052.903688
2179.500344,-14804.118840,6513.812290,-70787.224015
2179.502902,-4293.194464,-27091.537477,-84576.942979
2179.505459,-33457.308578,7846.182985,-72472.634111
2179.508017,29164.114115,-13471.748144,-75077.358804
2179.510574,-11251.130318,-8142.265362,-76456.330700
2179.513132,29164.114115,-3256.906145,-77988.521696
2179.515690,-12435.459826,-5033.400406,-81818.999186
2179.518247,11547.212695,-4145.153275,-72472.634111
2179.520805,-16136.489536,-592.164754,-77222.426198
2179.523363,11103.089130,-3256.906145,-68948.594820
2179.525920,-7994.224174,-9326.594869,-84423.723880
2179.528478,9474.636058,11547.212695,-63892.364533
2179.531035,1628.453072,-19541.436869,-82891.532884
2179.533593,-20873.807564,-1924.535449,-72012.976812
2179.536151,12583.501014,-16284.530724,-82585.094684
2179.538708,-33457.308578,14508.036463,-68948.594820
2179.541266,14359.995275,-32865.143825,-88713.858668
2179.543823,-21021.848753,7994.224174,-66343.870127
2179.546380,16136.489536,-31236.690752,-86568.791274
2179.548937,-27831.743419,21021.848753,-67109.965625
2179.551494,27387.619854,-27683.702231,-87334.886772
2179.554051,-40859.367998,23686.590144,-64045.583633
2179.556608,37306.379477,9030.512492,-76149.892501
2179.559165,-11695.253884,-15396.283594,-84883.381178
2179.561723,28275.866984,10658.965565,-63739.145434
2179.564280,27239.578666,-4293.194464,-78601.398095
2179.566837,-20281.642811,5625.565159,-60674.763442
2179.569394,8290.306550,9030.512492,-83044.751983
2179.571951,8290.306550,10362.883188,-76609.549800
2179.574508,-22946.384202,1776.494261,-85189.819378
2179.577065,17024.736666,4589.276840,-72472.634111
2179.579622,43672.150578,-23390.507767,-83810.847481
2179.582180,-31532.773129,14656.077652,-69561.471218
2179.584737,23390.507767,-19097.313304,-92544.336158
2179.587294,-24870.919651,21762.054695,-62206.954438
2179.589851,25759.166782,-30200.402434,-94842.622652
2179.592408,-15840.407159,13915.871710,-63126.269035
2179.594965,35825.967593,-10510.924376,-80899.684589
2179.597522,-17764.942608,10510.924376,-75843.454302
2179.600079,27239.578666,-2072.576638,-79061.055394
2179.602637,-2072.576638,11251.130318,-75230.577904
2179.605194,2960.823768,4589.276840,-64658.460031
2179.607751,-6513.812290,-3552.988522,-85802.695776
2179.610308,9770.718434,444.123565,-78601.398095
2179.612865,12583.501014,-444.123565,-77069.207099
2179.615422,-12287.418637,17912.983796,-70940.443115
2179.617979,10214.842000,-8142.265362,-81972.218286
2179.620537,-32569.061448,4145.153275,-71706.538613
2179.623094,36122.049970,-9622.677246,-84730.162079
2179.625651,-42487.821071,-13619.789333,-81206.122788
2179.628208,-2812.782580,-12731.542202,-88867.077768
2179.630765,-2812.782580,14211.954086,-73085.510509
2179.633322,21169.889941,-17764.942608,-70174.347617
2179.635879,-26647.413912,6069.688724,-74924.139704
2179.638436,14359.995275,2960.823768,-70021.128517
2179.640994,-10510.924376,-18949.272115,-81818.999186
2179.643551,17468.860231,-444.123565,-70480.785816
2179.646108,148.041188,-4145.153275,-79214.274493
2179.648665,7846.182985,3701.029710,-67263.184724
2179.651222,-11251.130318,-888.247130,-81206.122788
2179.653779,-888.247130,2960.823768,-69255.033019
2179.656336,9770.718434,-18505.148550,-81052.903688
2179.658893,-18505.148550,7994.224174,-73085.510509
2179.661450,20725.766376,-16136.489536,-80899.684589
2179.664008,-21762.054695,-3552.988522,-76456.330700
2179.666565,20577.725188,-11547.212695,-74158.044206
2179.669122,-19985.560434,1924.535449,-79061.055394
2179.671679,15248.242405,-8438.347739,-76762.768900
2179.674236,-6809.894666,-7698.141797,-77682.083497
2179.676793,21762.054695,-10510.924376,-72319.415011
2179.679350,-19245.354492,-13323.706956,-81972.218286
2179.681907,-11399.171507,1332.370696,-70787.224015
2179.684464,6365.771101,-2516.700203,-82431.875585
2179.687022,-45300.603650,2368.659014,-77375.645298
2179.689579,28571.949361,592.164754,-82585.094684
2179.692136,2368.659014,-7698.141797,-76915.987999
2179.694693,-3701.029710,-6809.894666,-78601.398095
2179.697250,18357.107362,19097.313304,-72166.195912
2179.699807,-4885.359217,-26943.496289,-87028.448573
2179.702364,-37158.338288,19245.354492,-74158.044206
2179.704921,66470.493592,-13619.789333,-79673.931792
2179.707479,-1924.535449,-888.247130,-85036.600278
2179.710036,-3552.988522,-4589.276840,-79980.369991
2179.712593,28275.866984,-4589.276840,-80593.246390
2179.715150,10807.006753,740.205942,-69408.252119
2179.717707,-21910.095883,3108.864956,-86109.133975
2179.720264,26943.496289,12139.377449,-63892.364533
2179.722821,5033.400406,-15544.324782,-86415.572174
2179.725378,4293.194464,6661.853478,-67416.403824
2179.727935,6069.688724,-148.041188,-83197.971083
2179.730493,4441.235652,6069.688724,-77528.864398
2179.733050,9770.718434,-12731.542202,-87181.667672
2179.735607,-16580.613101,18061.024985,-69408.252119
2179.738164,19097.313304,-20873.807564,-82125.437386
2179.740721,-24574.837274,17764.942608,-70327.566716
2179.743278,33605.349767,-22058.137072,-91165.364262
2179.745836,-6365.771101,20577.725188,-68488.937521
2179.748393,16728.654289,-19689.478057,-87334.886772
2179.750951,-27831.743419,26647.413912,-65884.212828
2179.753508,39526.997303,-30496.484810,-90092.830565
2179.756066,-44264.315332,11843.295072,-64505.240932
2179.758623,11991.336260,12731.542202,-73851.606007
2179.761181,6365.771101,-11991.336260,-78141.740796
2179.763738,-2516.700203,-2368.659014,-66650.308326
2179.766296,-14063.912898,2664.741391,-81665.780087
2179.768853,-9178.553681,-4441.235652,-70940.443115
2179.771411,-9622.677246,-10658.965565,-87181.667672
2179.773968,-2812.782580,2812.782580,-71706.538613
2179.776526,3701.029710,-22354.219448,-84883.381178
2179.779083,-10955.047942,7105.977043,-75383.797003
2179.781641,1332.370696,-16284.530724,-86568.791274
2179.784198,-30052.361245,7846.182985,-65118.117330
2179.786756,27535.661042,-18653.189738,-83197.971083
2179.789313,-23242.466579,8882.471304,-66956.746525
2179.791871,26943.496289,-13767.830521,-77682.083497
2179.794428,-20577.725188,7846.182985,-72319.415011
2179.796986,20281.642811,-12287.418637,-75230.577904
2179.799543,-15396.283594,-3108.864956,-75537.016103
2179.802101,12435.459826,-4145.153275,-72625.853210
2179.804658,-11103.089130,-9770.718434,-84270.504780
2179.807216,19393.395680,-2220.617826,-69714.690318
2179.809773,2368.659014,-17912.983796,-79673.931792
2179.812331,-14952.160028,9030.512492,-70174.347617
2179.814888,9622.677246,-12435.459826,-85496.257577
2179.817445,-37602.461854,9030.512492,-69714.690318
2179.820003,30792.567187,-5181.441594,-85496.257577
2179.822560,-32272.979071,-8142.265362,-82431.875585
2179.825118,33753.390955,-4145.153275,-77528.864398
2179.827675,6365.771101,9622.677246,-64352.021832
2179.830233,-10362.883188,-23686.590144,-82431.875585
2179.832790,-13027.624579,37898.544230,-70174.347617
2179.835348,56551.733969,8586.388927,-66956.746525
2179.837905,-22058.137072,-13027.624579,-83197.971083
2179.840463,11547.212695,1480.411884,-72472.634111
2179.843020,22354.219448,-11695.253884,-81512.560987
2179.845578,1036.288319,6809.894666,-62513.392637
2179.848135,-9622.677246,2072.576638,-85343.038477
2179.850692,15544.324782,11547.212695,-70174.347617
2179.853250,-2664.741391,-13619.789333,-83351.190182
2179.855807,3701.029710,3701.029710,-71093.662214
2179.858364,28719.990550,-14656.077652,-86722.010374
2179.860922,-23982.672521,20873.807564,-73851.606007
2179.863479,15692.365970,-11547.212695,-82585.094684
2179.866036,-15988.448347,16432.571912,-70634.004916
2179.868594,16432.571912,-20577.725188,-87028.448573
2179.871151,-23686.590144,17172.777854,-67263.184724
2179.873708,40563.285622,-17468.860231,-87794.544071
2179.876266,-12435.459826,27831.743419,-71093.662214
2179.878823,32569.061448,-15396.283594,-82891.532884
2179.881380,-37898.544230,9474.636058,-64505.240932
2179.883938,23390.507767,14211.954086,-70480.785816
2179.886495,-6365.771101,-21021.848753,-88867.077768
2179.889052,-15544.324782,296.082377,-68642.156621
2179.891610,13027.624579,-4293.194464,-84270.504780
2179.894167,-592.164754,-7846.182985,-67569.622924
2179.896724,-16432.571912,3701.029710,-77988.521696
2179.899282,-9474.636058,4145.153275,-66190.651027
2179.901839,-7105.977043,-19837.519246,-85036.600278
2179.904396,-14804.118840,9622.677246,-70480.785816
2179.906954,14952.160028,-19245.354492,-84730.162079
2179.909511,-27239.578666,11547.212695,-66343.870127
2179.912068,22946.384202,-13471.748144,-85189.819378
2179.914626,-26203.290347,5921.647536,-71859.757712
2179.917183,17024.736666,-12435.459826,-79827.150892
2179.919740,-14063.912898,4589.276840,-69714.690318
2179.922298,17912.983796,-6069.688724,-75843.454302
2179.924855,-8882.471304,-740.205942,-78601.398095
2179.927412,18801.230927,-5921.647536,-70174.347617
2179.929970,-16728.654289,-3108.864956,-78448.178995
2179.932527,3108.864956,-1924.535449,-70327.566716
2179.935084,-6069.688724,-6809.894666,-79673.931792
2179.937642,-14804.118840,-11991.336260,-75383.797003
2179.940199,12287.418637,-5477.523971,-79367.493593
2179.942756,-11547.212695,1332.370696,-74464.482406
2179.945314,5477.523971,-5625.565159,-76915.987999
2179.947871,-9474.636058,740.205942,-75077.358804
2179.950428,-8882.471304,-15692.365970,-82278.656485
2179.952986,1776.494261,23094.425390,-77222.426198
2179.955543,6513.812290,-29016.072926,-85189.819378
2179.958100,-20281.642811,15396.283594,-74617.701505
2179.960657,44116.274143,14063.912898,-74311.263306
2179.963215,-1776.494261,4589.276840,-79980.369991
2179.965772,-17616.901420,4145.153275,-79520.712692
2179.968329,12731.542202,12435.459826,-81206.122788
2179.970887,18209.066173,-6513.812290,-75077.358804
2179.973444,-6513.812290,3404.947333,-78907.836294
2179.976001,24574.837274,8290.306550,-72472.634111
2179.978559,-6809.894666,592.164754,-84423.723880
2179.981116,0.000000,8734.430116,-66803.527426
2179.983673,1036.288319,-3552.988522,-77988.521696
2179.986230,-296.082377,12731.542202,-68488.937521
2179.988788,14952.160028,-13767.830521,-85955.914876
2179.991345,-14063.912898,18357.107362,-74311.263306
2179.993902,26647.413912,-19393.395680,-82891.532884
2179.996460,-31828.855506,15100.201217,-69867.909418
2179.999017,19837.519246,-16728.654289,-85496.257577
2180.001574,-2960.823768,16432.571912,-66190.651027
2180.004131,21169.889941,-2960.823768,-86415.572174
2180.006689,-2664.741391,6809.894666,-72625.853210
2180.009246,4145.153275,-10807.006753,-73545.167808
2180.011803,-11547.212695,11399.171507,-80899.684589
2180.014361,11251.130318,-6513.812290,-75077.358804
2180.016918,-32421.020260,-15692.365970,-79673.931792
2180.019475,19837.519246,7846.182985,-72166.195912
2180.022033,-5033.400406,-8734.430116,-74004.825107
2180.024590,-2960.823768,-888.247130,-71706.538613
2180.027147,-8438.347739,-1924.535449,-83351.190182
2180.029704,-18505.148550,-11991.336260,-76303.111601
2180.032262,-9918.759623,-9178.553681,-81818.999186
2180.034819,-30792.567187,19689.478057,-69255.033019
2180.037376,34937.720462,-22354.219448,-82738.313784
2180.039934,-15396.283594,14063.912898,-66803.527426
2180.042491,15248.242405,-19689.478057,-89939.611465
2180.045048,-15396.283594,7698.141797,-65577.774629
2180.047605,10955.047942,-4145.153275,-75383.797003
2180.050163,-22206.178260,-3997.112087,-82431.875585
2180.052720,29312.155303,-6809.894666,-67876.061123
2180.055278,-8882.471304,-4589.276840,-79367.493593
2180.057835,9770.718434,-7550.100608,-73391.948708
2180.060393,-9178.553681,-4589.276840,-82278.656485
2180.062950,-19985.560434,-4145.153275,-73545.167808
2180.065508,5181.441594,-20873.807564,-80746.465489
2180.068065,-18505.148550,-1036.288319,-75537.016103
2180.070623,19985.560434,296.082377,-82891.532884
2180.073180,-38638.750172,3849.070898,-70480.785816
2180.075738,23390.507767,740.205942,-82585.094684
2180.078295,7402.059420,19689.478057,-70787.224015
2180.080853,-3256.906145,-25315.043216,-82431.875585
2180.083410,-12139.377449,22206.178260,-77682.083497
2180.085968,48261.427418,-9770.718434,-81972.218286
2180.088525,-12287.418637,-2960.823768,-88560.639569
2180.091083,-9030.512492,15840.407159,-67876.061123
2180.093640,25315.043216,3701.029710,-77375.645298
2180.096198,-17616.901420,-2516.700203,-68335.718422
2180.098755,-10510.924376,-5921.647536,-81972.218286
2180.101313,21465.972318,-6809.894666,-77528.864398
2180.103870,7550.100608,296.082377,-77528.864398
2180.106428,-16876.695478,8882.471304,-78907.836294
2180.108985,11991.336260,-13619.789333,-81052.903688
2180.111543,-23982.672521,10066.800811,-74617.701505
2180.114100,22058.137072,-4737.318029,-81818.999186
2180.116658,-3997.112087,13619.789333,-74158.044206
2180.119215,20725.766376,-14063.912898,-81512.560987
2180.121772,2220.617826,7550.100608,-76303.111601
2180.124330,21910.095883,-1776.494261,-77988.521696
2180.126887,-7402.059420,10362.883188,-74004.825107
2180.129445,10807.006753,5625.565159,-72779.072310
2180.132002,3256.906145,4589.276840,-78448.178995
2180.134560,13175.665768,-13323.706956,-70634.004916
2180.137117,-10066.800811,888.247130,-78601.398095
2180.139675,6661.853478,9770.718434,-71553.319513
2180.142232,-18209.066173,-31976.896694,-82278.656485
2180.144790,-16136.489536,8734.430116,-72472.634111
2180.147347,5921.647536,-22650.301825,-82738.313784
2180.149905,-21169.889941,-444.123565,-66956.746525
2180.152462,15100.201217,-15396.283594,-88713.858668
2180.155019,-19097.313304,-3108.864956,-75383.797003
2180.157576,9326.594869,-26203.290347,-86415.572174
2180.160133,-34345.555709,18949.272115,-70787.224015
2180.162691,18801.230927,-6069.688724,-75843.454302
2180.165248,-5181.441594,-9474.636058,-84730.162079
2180.167805,18653.189738,-1184.329507,-71553.319513
2180.170362,-5625.565159,-7698.141797,-81512.560987
2180.172919,2368.659014,6957.935855,-68029.280222
2180.175476,-5773.606348,-2812.782580,-76149.892501
2180.178033,2664.741391,740.205942,-68182.499322
2180.180591,-11251.130318,-8142.265362,-81512.560987
2180.183148,4293.194464,-2368.659014,-68488.937521
2180.185705,-6069.688724,-6661.853478,-83504.409282
2180.188262,-31384.731941,-3404.947333,-75843.454302
2180.190819,15100.201217,-14656.077652,-82431.875585
2180.193376,-25907.207970,8142.265362,-68488.937521
2180.195933,12879.583391,-12583.501014,-77988.521696
2180.198491,-5329.482782,9474.636058,-74311.263306
2180.201048,8438.347739,-31088.649564,-91625.021561
2180.203605,7254.018232,27979.784608,-69255.033019
2180.206162,15840.407159,-15692.365970,-82125.437386
2180.208719,-32272.979071,16136.489536,-68182.499322
2180.211276,42635.862259,9770.718434,-70480.785816
2180.213834,29904.320057,1184.329507,-70634.004916
2180.216391,-4293.194464,-888.247130,-67416.403824
2180.218948,-740.205942,5921.647536,-85189.819378
2180.221505,6809.894666,5477.523971,-68335.718422
2180.224062,-9474.636058,-5329.482782,-82431.875585
2180.226619,3997.112087,7105.977043,-73085.510509
2180.229176,-5329.482782,-1924.535449,-80133.589091
2180.231734,-1480.411884,5625.565159,-69561.471218
2180.234291,6069.688724,-8734.430116,-81359.341888
2180.236848,-16136.489536,18505.148550,-69867.909418
2180.239405,21762.054695,-10214.842000,-83044.751983
2180.241962,-23686.590144,17024.736666,-70021.128517
2180.244519,23982.672521,-16876.695478,-86568.791274
2180.247076,-15988.448347,17764.942608,-68795.375720
2180.249634,39082.873738,-9918.759623,-80440.027290
2180.252191,-8734.430116,23538.548956,-73545.167808
2180.254748,34049.473332,-11843.295072,-82891.532884
2180.257305,-32717.102636,5921.647536,-70480.785816
2180.259862,45744.727216,-1036.288319,-71246.881314
2180.262420,-6513.812290,-21910.095883,-87947.763170
2180.264977,-26203.290347,-2664.741391,-72012.976812
2180.267534,18801.230927,-4885.359217,-84270.504780
2180.270091,-9918.759623,-5477.523971,-66497.089226
2180.272648,-9918.759623,-10066.800811,-86262.353075
2180.275206,-17468.860231,9030.512492,-65424.555529
2180.277763,-1332.370696,-26499.372724,-83964.066581
2180.280320,-26351.331535,13915.871710,-68335.718422
2180.282877,26055.249158,-24130.713709,-87488.105872
2180.285434,-30052.361245,15544.324782,-64964.898230
2180.287992,25018.960840,-8438.347739,-78754.617194
2180.290549,-19097.313304,7254.018232,-72012.976812
2180.293106,9030.512492,296.082377,-71246.881314
2180.295663,-9326.594869,2072.576638,-73698.386908
2180.298220,12879.583391,1332.370696,-67722.842023
2180.300778,-592.164754,-19097.313304,-85955.914876
2180.303335,7254.018232,1924.535449,-65424.555529
2180.305892,-6217.729913,-12139.377449,-83504.409282
2180.308449,-2960.823768,-1184.329507,-68335.718422
2180.311006,-16876.695478,-9178.553681,-83964.066581
2180.313564,-13471.748144,8438.347739,-69867.909418
2180.316121,24870.919651,-18505.148550,-82891.532884
2180.318678,-30496.484810,14804.118840,-68795.375720
2180.321235,37602.461854,-13767.830521,-87794.544071
2180.323792,-55071.322085,0.000000,-78141.740796
2180.326349,34493.596897,-7698.141797,-85189.819378
2180.328907,-10955.047942,7698.141797,-64964.898230
2180.331464,7402.059420,-15396.283594,-80899.684589
2180.334021,5329.482782,36566.173535,-62666.611736
2180.336549,29608.237680,-13619.789333,-62360.173537
2180.339077,-29904.320057,-10362.883188,-89326.735067
2180.341605,-1332.370696,15248.242405,-65884.212828
2180.344133,16580.613101,-13915.871710,-77682.083497
2180.346661,6957.935855,7698.141797,-59449.010645
2180.349189,1036.288319,0.000000,-84270.504780
2180.351717,11103.089130,9030.512492,-68642.156621
2180.354245,-3404.947333,1036.288319,-82585.094684
2180.356773,2368.659014,6217.729913,-72625.853210
2180.359301,3108.864956,-592.164754,-79520.712692
2180.361829,-10214.842000,10510.924376,-69408.252119
2180.364357,27239.578666,-15248.242405,-85343.038477
2180.366885,-8734.430116,19837.519246,-69101.813920
2180.369413,26203.290347,-15544.324782,-85496.257577
2180.371941,-13767.830521,24278.754898,-65424.555529
2180.374469,11103.089130,-12731.542202,-86875.229473
2180.376997,-6661.853478,20725.766376,-65577.774629
2180.379525,17616.901420,-28127.825796,-83351.190182
2180.382053,-20429.683999,16284.530724,-71859.757712
2180.384581,45892.768404,-13471.748144,-77835.302597
2180.387109,-40415.244433,-16728.654289,-87334.886772
2180.389637,7994.224174,-2812.782580,-70480.785816
2180.392165,-17468.860231,-4737.318029,-85802.695776
2180.394693,-11547.212695,-9030.512492,-74158.044206
2180.397221,7105.977043,-6513.812290,-84576.942979
2180.399749,-2664.741391,-4293.194464,-73238.729609
2180.402278,-6365.771101,-21021.848753,-88100.982270
2180.404806,-25463.084405,15544.324782,-75383.797003
2180.407334,12287.418637,-18801.230927,-81206.122788
2180.409862,-22354.219448,7254.018232,-67416.403824
2180.412390,12435.459826,-18949.272115,-82585.094684
2180.414918,-23390.507767,14804.118840,-68642.156621
2180.417446,28571.949361,-18949.272115,-79827.150892
2180.419974,-25611.125593,5773.606348,-73851.606007
2180.422502,7698.141797,-7402.059420,-75690.235202
2180.425030,-11547.212695,-12435.459826,-74770.920605
2180.427558,14063.912898,-2220.617826,-67569.622924
2180.430086,-13175.665768,-9030.512492,-85496.257577
2180.432614,29904.320057,-3108.864956,-68488.937521
2180.435142,-17616.901420,-8438.347739,-85036.600278
2180.437675,-20429.683999,14359.995275,-68948.594820
2180.440209,17024.736666,-19097.313304,-84883.381178
2180.442742,-38194.626607,9622.677246,-70480.785816
2180.445275,37158.338288,148.041188,-91931.459760
2180.447809,-24426.796086,-1480.411884,-71400.100414
2180.450342,15248.242405,-5477.523971,-82738.313784
2180.452876,3404.947333,28275.866984,-64045.583633
2180.455409,-7254.018232,-23686.590144,-89633.173266
2180.457943,-27683.702231,22502.260637,-68029.280222
2180.460476,50185.962868,-18653.189738,-85189.819378
2180.463009,-2960.823768,-9770.718434,-82585.094684
2180.465543,11695.253884,9770.718434,-66343.870127
2180.468076,9178.553681,-2368.659014,-79214.274493
2180.470610,8290.306550,11843.295072,-64811.679131
2180.473143,-7105.977043,-1480.411884,-81206.122788
2180.475677,14359.995275,9326.594869,-63279.488135
2180.478210,4885.359217,-3552.988522,-86109.133975
2180.480743,14359.995275,4293.194464,-72932.291410
2180.483277,-1628.453072,-1924.535449,-85649.476676
2180.485810,7254.018232,8290.306550,-72932.291410
2180.488344,16728.654289,-18209.066173,-86722.010374
2180.490877,-13915.871710,19097.313304,-67416.403824
2180.493411,26203.290347,-14359.995275,-82278.656485
2180.495944,-21465.972318,12879.583391,-76456.330700
2180.498477,52554.621882,-11251.130318,-76149.892501
2180.501011,-41007.409187,-7698.141797,-70021.128517
2180.503544,18209.066173,11399.171507,-73238.729609
2180.506078,-10362.883188,-12583.501014,-78601.398095
2180.508611,12879.583391,-5033.400406,-71400.100414
2180.511145,-4885.359217,-7698.141797,-86722.010374
2180.513678,-3701.029710,-4737.318029,-69714.690318
2180.516211,-9326.594869,-19837.519246,-90399.268764
2180.518745,-25167.002028,15988.448347,-69408.252119
2180.521278,11399.171507,-29164.114115,-84576.942979
2180.523812,-20281.642811,8734.430116,-65730.993728
2180.526345,18061.024985,-17320.819043,-81818.999186
2180.528879,-21021.848753,9770.718434,-75690.235202
2180.531412,19245.354492,-24426.796086,-92237.897959
2180.533945,-24426.796086,12139.377449,-68029.280222
2180.536479,13471.748144,-20281.642811,-80899.684589
2180.539018,-12879.583391,-9474.636058,-78448.178995
2180.541557,10214.842000,-9770.718434,-70174.347617
2180.544095,4441.235652,-8734.430116,-81818.999186
2180.546634,7402.059420,-444.123565,-68335.718422
2180.549172,-3997.112087,-10214.842000,-83044.751983
2180.551711,-444.123565,-1776.494261,-69867.909418
2180.554249,740.205942,3256.906145,-81972.218286
2180.556787,-25167.002028,1628.453072,-71246.881314
2180.559326,22206.178260,6957.935855,-80593.246390
2180.561864,9326.594869,7698.141797,-75537.016103
2180.564403,0.000000,-23982.672521,-82738.313784
2180.566941,-14952.160028,28868.031738,-74464.482406
2180.569480,27535.661042,-24130.713709,-89173.515967
2180.572018,-33901.432144,12139.377449,-71246.881314
2180.574557,33457.308578,-7254.018232,-87028.448573
2180.577095,-4589.276840,7254.018232,-75537.016103
2180.579634,17912.983796,-11843.295072,-82431.875585
2180.582172,-4145.153275,10510.924376,-72012.976812
2180.584710,21169.889941,-8438.347739,-70787.224015
2180.587249,-23982.672521,7698.141797,-83810.847481
2180.589787,11103.089130,7994.224174,-69867.909418
2180.592326,8882.471304,-7994.224174,-85649.476676
2180.594864,5329.482782,9770.718434,-72012.976812
2180.597403,5625.565159,4293.194464,-81206.122788
2180.599941,-6217.729913,6809.894666,-78601.398095
2180.602480,1776.494261,4145.153275,-78294.959896
2180.605018,-7698.141797,1924.535449,-75996.673402
2180.607556,16728.654289,-3256.906145,-82431.875585
2180.610095,-14359.995275,9178.553681,-74311.263306
2180.612633,26795.455100,-2516.700203,-83504.409282
2180.615172,-16580.613101,2220.617826,-73085.510509
2180.617710,-4145.153275,-15840.407159,-77835.302597
2180.620249,-8734.430116,21317.931130,-68182.499322
2180.622787,14063.912898,-33309.267390,-78907.836294
2180.625326,-1776.494261,-1332.370696,-77069.207099
2180.627864,18209.066173,-4737.318029,-75537.016103
2180.630403,-19837.519246,-14359.995275,-82125.437386
2180.632941,18505.148550,7846.182985,-67569.622924
2180.635479,-12879.583391,-9030.512492,-83197.971083
2180.638018,5181.441594,-2664.741391,-68642.156621
2180.640560,13027.624579,-15840.407159,-78448.178995
2180.643102,-13915.871710,8882.471304,-78448.178995
2180.645644,5477.523971,-17024.736666,-88560.639569
2180.648187,-20577.725188,2960.823768,-69101.813920
2180.650729,5773.606348,-14063.912898,-81052.903688
2180.653271,-32421.020260,4145.153275,-78141.740796
2180.655813,11399.171507,-32569.061448,-85343.038477
2180.658355,-23242.466579,1924.535449,-67722.842023
2180.660897,27091.537477,-31384.731941,-90399.268764
2180.663439,-24574.837274,-7550.100608,-83657.628382
2180.665982,22946.384202,-4145.153275,-67569.622924
2180.668524,-24574.837274,-9326.594869,-83351.190182
2180.671066,23834.631332,4293.194464,-72779.072310
2180.673608,-19837.519246,-7402.059420,-80286.808190
2180.676150,25759.166782,15692.365970,-63279.488135
2180.678692,20281.642811,-3552.988522,-86262.353075
2180.681235,-7550.100608,1628.453072,-71706.538613
2180.683777,5033.400406,12435.459826,-85649.476676
2180.686319,7254.018232,-592.164754,-73238.729609
2180.688861,3997.112087,-21910.095883,-88407.420469
2180.691403,-13323.706956,19985.560434,-67722.842023
2180.693945,43672.150578,-20281.642811,-87334.886772
2180.696488,-38490.708984,15100.201217,-67722.842023
2180.699030,24130.713709,-27387.619854,-91778.240660
2180.701572,-24722.878463,11547.212695,-69561.471218
2180.704114,26203.290347,-16876.695478,-82585.094684
2180.706656,-16284.530724,11251.130318,-74464.482406
2180.709198,37602.461854,-13915.871710,-80899.684589
2180.711741,-14656.077652,14656.077652,-72625.853210
2180.714283,10510.924376,15692.365970,-65424.555529
2180.716825,2664.741391,-3701.029710,-88100.982270
2180.719367,6661.853478,10510.924376,-67263.184724
2180.721909,2516.700203,1184.329507,-79214.274493
2180.724451,13767.830521,12435.459826,-74464.482406
2180.726994,9474.636058,-7698.141797,-81665.780087
2180.729536,-22946.384202,7698.141797,-71400.100414
2180.732078,21614.013506,-11251.130318,-85343.038477
2180.734620,-45744.727216,-12879.583391,-75843.454302
2180.737162,9770.718434,-592.164754,-80593.246390
2180.739704,-4589.276840,7846.182985,-67569.622924
2180.742250,17616.901420,-25759.166782,-84270.504780
2180.744796,-23242.466579,17172.777854,-71246.881314
2180.747342,20577.725188,-14656.077652,-71859.757712
2180.749887,-28423.908173,-2812.782580,-74770.920605
2180.752433,14804.118840,-1332.370696,-76762.768900
2180.754979,444.123565,-10807.006753,-79827.150892
2180.757525,19097.313304,-9770.718434,-74464.482406
2180.760070,-10214.842000,-5773.606348,-87641.324971
2180.762616,-15692.365970,14211.954086,-72166.195912
2180.765162,-296.082377,-17468.860231,-88560.639569
2180.767708,-20133.601622,-1924.535449,-74158.044206
2180.770254,-2812.782580,-18209.066173,-88713.858668
2180.772799,-14804.118840,-5773.606348,-74158.044206
2180.775345,15248.242405,-19985.560434,-80286.808190
2180.777891,-26055.249158,6809.894666,-73238.729609
2180.780437,7402.059420,-32124.937883,-86262.353075
2180.782982,-30940.608376,12435.459826,-67876.061123
2180.785528,25463.084405,-21317.931130,-84730.162079
2180.788074,-40711.326810,444.123565,-80746.465489
2180.790620,45152.562462,3997.112087,-77222.426198
2180.793165,2516.700203,-6661.853478,-78601.398095
2180.795711,8142.265362,7550.100608,-70787.224015
2180.798257,16580.613101,1332.370696,-81972.218286
2180.800803,6513.812290,-1332.370696,-67109.965625
2180.803348,-5181.441594,5477.523971,-92544.336158
2180.805894,41895.656317,8586.388927,-62819.830836
2180.808440,-10066.800811,-11843.295072,-88867.077768
2180.810986,-3256.906145,14952.160028,-70940.443115
2180.813531,11251.130318,-14952.160028,-85955.914876
2180.816077,-16284.530724,4885.359217,-77682.083497
2180.818623,11103.089130,-17320.819043,-82278.656485
2180.821169,-12435.459826,15100.201217,-70634.004916
2180.823715,29756.278868,-21614.013506,-84730.162079
2180.826260,-24130.713709,21465.972318,-67109.965625
2180.828806,30644.525999,-12731.542202,-87641.324971
2180.831352,-24278.754898,19393.395680,-68182.499322
2180.833898,16136.489536,-9622.677246,-86262.353075
2180.836443,-5477.523971,13471.748144,-70940.443115
2180.838989,30052.361245,12139.377449,-66650.308326
2180.841535,-2368.659014,-1924.535449,-83504.409282
2180.844083,-4737.318029,5033.400406,-68488.937521
2180.846632,26795.455100,-444.123565,-78601.398095
2180.849180,-34493.596897,-11843.295072,-72625.853210
2180.851729,-6809.894666,1924.535449,-80286.808190
2180.854278,14508.036463,-4293.194464,-70787.224015
2180.856826,-10066.800811,-12879.583391,-86262.353075
2180.859375,-7550.100608,592.164754,-75537.016103
2180.861923,-888.247130,-21614.013506,-79673.931792
2180.864472,-32421.020260,1480.411884,-71553.319513
2180.867020,15544.324782,-10510.924376,-79827.150892
2180.869569,-11695.253884,592.164754,-74004.825107
2180.872117,18209.066173,-16876.695478,-84423.723880
2180.874666,-7994.224174,9326.594869,-71553.319513
2180.877215,18801.230927,-4885.359217,-73545.167808
2180.879763,-20429.683999,2220.617826,-76456.330700
2180.882312,10214.842000,-7105.977043,-74617.701505
2180.884860,-8142.265362,-3552.988522,-76609.549800
2180.887409,6069.688724,-9622.677246,-71246.881314
2180.889957,-4293.194464,-7846.182985,-79673.931792
2180.892506,-9770.718434,-3404.947333,-77069.207099
2180.895054,1776.494261,-10807.006753,-78141.740796
2180.897603,-29460.196492,-148.041188,-77375.645298
2180.900151,12731.542202,-2812.782580,-81665.780087
2180.902700,-34937.720462,-10362.883188,-75077.358804
2180.905249,29608.237680,-1332.370696,-76609.549800
2180.907797,6957.935855,30348.443622,-76762.768900
2180.910346,8734.430116,-19097.313304,-78294.959896
2180.912894,-10510.924376,16136.489536,-73545.167808
2180.915443,30348.443622,3849.070898,-70021.128517
2180.917991,-6217.729913,-2368.659014,-85343.038477
2180.920540,7550.100608,7846.182985,-65271.336430
2180.923088,5329.482782,4885.359217,-80286.808190
2180.925637,7846.182985,-2072.576638,-78601.398095
2180.928185,-8290.306550,-6069.688724,-80899.684589
2180.930734,-13027.624579,3256.906145,-76762.768900
2180.933283,9326.594869,-10362.883188,-79367.493593
2180.935831,-11251.130318,7846.182985,-75537.016103
2180.938380,23538.548956,-10807.006753,-80593.246390
2180.940928,-12583.501014,13323.706956,-71859.757712
2180.943477,19541.436869,-7550.100608,-84883.381178
2180.946028,-15248.242405,23242.466579,-69867.909418
2180.948579,26943.496289,-10955.047942,-79214.274493
2180.951130,-1924.535449,14359.995275,-75690.235202
2180.953681,29608.237680,-13323.706956,-80440.027290
2180.956232,-14359.995275,8586.388927,-77069.207099
2180.958782,35233.802839,-9918.759623,-74924.139704
2180.961333,-39378.956114,-2368.659014,-75843.454302
2180.963884,22354.219448,10362.883188,-70021.128517
2180.966435,1480.411884,-13767.830521,-82431.875585
2180.968986,-8734.430116,-3108.864956,-73085.510509
2180.971537,5625.565159,-9770.718434,-84730.162079
2180.974088,-17616.901420,-2516.700203,-67876.061123
2180.976639,1628.453072,-17764.942608,-84730.162079
2180.979190,-27091.537477,9770.718434,-71093.662214
2180.981741,12583.501014,-31384.731941,-87947.763170
2180.984292,-27387.619854,13471.748144,-70021.128517
2180.986843,28868.031738,-19689.478057,-89020.296868
2180.989394,-22058.137072,17764.942608,-70480.785816
2180.991945,10955.047942,-444.123565,-69408.252119
2180.994496,-16284.530724,-5625.565159,-77528.864398
2180.997047,4441.235652,1628.453072,-68642.156621
2180.999598,-9770.718434,-9326.594869,-76303.111601
2181.002149,20281.642811,-7105.977043,-67876.061123
2181.004700,-8882.471304,-11399.171507,-83657.628382
2181.007251,11399.171507,2072.576638,-70174.347617
2181.009802,-16432.571912,-10955.047942,-85189.819378
2181.012352,2812.782580,15248.242405,-67109.965625
2181.014903,-26499.372724,-12879.583391,-84576.942979
2181.017454,-27979.784608,22206.178260,-65271.336430
2181.020005,54035.033766,-9326.594869,-90705.706963
2181.022556,-44708.438897,5921.647536,-73085.510509
2181.025107,29608.237680,-6957.935855,-90705.706963
2181.027658,-16876.695478,24130.713709,-65577.774629
2181.030209,14359.995275,-26647.413912,-90092.830565
2181.032760,-21317.931130,28868.031738,-65424.555529
2181.035311,50037.921679,-21762.054695,-90858.926063
2181.037862,-19393.395680,7105.977043,-70327.566716
2181.040413,33457.308578,-9622.677246,-78294.959896
2181.042964,-1184.329507,-3849.070898,-84576.942979
2181.045515,6217.729913,5773.606348,-65730.993728
2181.048068,-8142.265362,-10510.924376,-86415.572174
2181.050621,12435.459826,9326.594869,-74311.263306
2181.053175,11547.212695,-2516.700203,-84270.504780
2181.055728,-1036.288319,8438.347739,-73545.167808
2181.058281,3256.906145,6217.729913,-80286.808190
2181.060834,-10658.965565,6365.771101,-75843.454302
2181.063387,8882.471304,2812.782580,-80286.808190
2181.065941,-14804.118840,-5181.441594,-80133.589091
2181.068494,24722.878463,-27387.619854,-84576.942979
2181.071047,12879.583391,13619.789333,-71706.538613
2181.073600,-8882.471304,-28423.908173,-87181.667672
2181.076154,-21169.889941,9326.594869,-69101.813920
2181.078707,23686.590144,-12435.459826,-72166.195912
2181.081260,-26351.331535,-592.164754,-79061.055394
2181.083813,32865.143825,-10066.800811,-75537.016103
2181.086366,-11547.212695,-5477.523971,-71553.319513
2181.088920,12139.377449,-10658.965565,-85496.257577
2181.091473,-11991.336260,-1332.370696,-83044.751983
2181.094026,-14952.160028,-5773.606348,-75383.797003
2181.096579,740.205942,-16136.489536,-84730.162079
2181.099133,-12879.583391,6217.729913,-73238.729609
2181.101686,18209.066173,-17468.860231,-80746.465489
2181.104239,-15544.324782,296.082377,-77222.426198
2181.106792,-3701.029710,-19837.519246,-87488.105872
2181.109345,-34937.720462,296.082377,-74924.139704
2181.111899,14508.036463,-31532.773129,-82891.532884
2181.114452,-26499.372724,7402.059420,-68488.937521
2181.117005,21317.931130,-16284.530724,-74924.139704
2181.119558,-3404.947333,148.041188,-77069.207099
2181.122112,23834.631332,-1924.535449,-69101.813920
2181.124665,-29904.320057,5329.482782,-78754.617194
2181.127218,22502.260637,2368.659014,-75230.577904
2181.129771,-17616.901420,-11103.089130,-84270.504780
2181.132324,38046.585419,21910.095883,-66497.089226
2181.134878,-2368.659014,-5329.482782,-80133.589091
2181.137431,6661.853478,9918.759623,-64352.021832
2181.139984,3997.112087,14952.160028,-81359.341888
2181.142537,-4589.276840,15840.407159,-64658.460031
2181.145091,-1924.535449,-24870.919651,-88713.858668
2181.147644,-25167.002028,19393.395680,-66803.527426
2181.150198,43820.191766,-24426.796086,-86109.133975
2181.152753,-25018.960840,10658.965565,-70787.224015
2181.155307,27387.619854,-22650.301825,-84117.285680
2181.157861,-17912.983796,21169.889941,-60521.544342
2181.160416,15840.407159,-20281.642811,-92237.897959
2181.162970,-19097.313304,16136.489536,-65424.555529
2181.165525,47817.303853,-6809.894666,-78754.617194
2181.168079,7402.059420,5181.441594,-87181.667672
2181.170633,7698.141797,9622.677246,-69714.690318
2181.173188,4737.318029,5329.482782,-82891.532884
2181.175742,-9770.718434,1480.411884,-72012.976812
2181.178297,-148.041188,8586.388927,-79980.369991
2181.180851,5921.647536,-8438.347739,-76609.549800
2181.183405,-13471.748144,-6513.812290,-80746.465489
2181.185960,5033.400406,13471.748144,-71553.319513
2181.188514,-17024.736666,-29756.278868,-82278.656485
2181.191069,-10510.924376,5329.482782,-68182.499322
2181.193623,18505.148550,-23094.425390,-85189.819378
2181.196178,-30644.525999,-2516.700203,-74004.825107
2181.198732,30496.484810,-20725.766376,-86568.791274
2181.201286,-12583.501014,5921.647536,-71093.662214
2181.203841,18653.189738,-15840.407159,-79367.493593
2181.206395,-23242.466579,6365.771101,-74158.044206
2181.208950,10214.842000,-2516.700203,-76149.892501
2181.211504,-7402.059420,-888.247130,-75230.577904
2181.214058,15988.448347,-1628.453072,-72166.195912
2181.216613,-5773.606348,-16136.489536,-88867.077768
2181.219167,-15248.242405,-4145.153275,-72932.291410
2181.221722,-2960.823768,-14656.077652,-82278.656485
2181.224276,-19541.436869,2812.782580,-71706.538613
2181.226830,-5773.606348,-25018.960840,-81052.903688
2181.229385,-14359.995275,9326.594869,-68182.499322
2181.231939,18949.272115,-22502.260637,-87488.105872
2181.234494,-26055.249158,13471.748144,-68948.594820
2181.237048,31828.855506,-30348.443622,-89326.735067
2181.239602,-51518.333563,17320.819043,-72319.415011
2181.242157,43376.068201,7402.059420,-75690.235202
2181.244711,-2516.700203,0.000000,-73698.386908
2181.247266,13175.665768,3256.906145,-69867.909418
2181.249820,17172.777854,11991.336260,-84423.723880
2181.252376,19097.313304,5625.565159,-67876.061123
2181.254933,-26055.249158,-1480.411884,-87181.667672
2181.257489,20577.725188,13323.706956,-60215.106143
2181.260045,5773.606348,-11251.130318,-85802.695776
2181.262601,-2664.741391,15840.407159,-63126.269035
2181.265157,2664.741391,-10658.965565,-84270.504780
2181.267714,9918.759623,18653.189738,-74004.825107
2181.270270,22354.219448,-20429.683999,-87641.324971
2181.272826,-31532.773129,17764.942608,-65424.555529
2181.275382,34789.679274,-9622.677246,-84730.162079
2181.277939,-26055.249158,23390.507767,-69561.471218
2181.280495,29016.072926,-18801.230927,-88100.982270
2181.283051,-4145.153275,23538.548956,-68795.375720
2181.285607,23982.672521,-23982.672521,-91625.021561
2181.288164,-26351.331535,22058.137072,-69714.690318
2181.290720,34789.679274,-19541.436869,-80899.684589
2181.293276,-32421.020260,-25463.084405,-85802.695776
2181.295832,16432.571912,5033.400406,-69408.252119
2181.298388,-4441.235652,-8734.430116,-79827.150892
2181.300945,740.205942,-7254.018232,-74770.920605
2181.303501,-7105.977043,-1776.494261,-83351.190182
2181.306057,-11399.171507,-3701.029710,-68335.718422
2181.308613,-9770.718434,-18357.107362,-87794.544071
2181.311170,-8882.471304,5181.441594,-74924.139704
2181.313726,6957.935855,-19985.560434,-84883.381178
2181.316282,-16284.530724,3997.112087,-68795.375720
2181.318838,21317.931130,-18357.107362,-86568.791274
2181.321394,-19097.313304,12287.418637,-68795.375720
2181.323951,3552.988522,3997.112087,-63739.145434
2181.326507,-13323.706956,-11695.253884,-83810.847481
2181.329063,7254.018232,-2812.782580,-68182.499322
2181.331619,1332.370696,-12731.542202,-83044.751983
2181.334176,-7105.977043,-592.164754,-67722.842023
2181.336732,-2220.617826,-4737.318029,-81972.218286
2181.339288,-14656.077652,-8142.265362,-75537.016103
2181.341844,4589.276840,2812.782580,-77528.864398
2181.344401,-15692.365970,296.082377,-69714.690318
2181.346957,15692.365970,-17024.736666,-86262.353075
2181.349513,6809.894666,27239.578666,-77222.426198
2181.352069,9326.594869,-19097.313304,-83504.409282
2181.354627,-13471.748144,23094.425390,-72932.291410
2181.357184,29312.155303,-1184.329507,-79520.712692
2181.359741,-19097.313304,1332.370696,-74464.482406
2181.362299,23686.590144,-1332.370696,-79520.712692
2181.364856,13027.624579,740.205942,-76762.768900
2181.367413,15840.407159,-7254.018232,-77222.426198
2181.369971,-16432.571912,296.082377,-77835.302597
2181.372528,-8142.265362,7402.059420,-76762.768900
2181.375085,9474.636058,-6365.771101,-81512.560987
2181.377643,-6217.729913,6661.853478,-69561.471218
2181.380200,11843.295072,-5921.647536,-83504.409282
2181.382757,7550.100608,12139.377449,-75077.358804
2181.385315,2516.700203,-1480.411884,-81818.999186
2181.387872,-18653.189738,13175.665768,-75230.577904
2181.390430,21021.848753,-6957.935855,-83964.066581
2181.392987,-26351.331535,4145.153275,-74617.701505
2181.395544,22058.137072,-7698.141797,-77835.302597
2181.398102,13619.789333,2960.823768,-75383.797003
2181.400659,2960.823768,-22946.384202,-73698.386908
2181.403216,-14656.077652,21465.972318,-69255.033019
2181.405774,7846.182985,-16728.654289,-74004.825107
2181.408331,-8142.265362,-12139.377449,-80746.465489
2181.410888,10955.047942,3701.029710,-69561.471218
2181.413446,-5921.647536,-21169.889941,-83044.751983
2181.416003,16136.489536,-2960.823768,-74770.920605
2181.418560,7994.224174,-7550.100608,-84117.285680
2181.421118,-26055.249158,2664.741391,-71400.100414
2181.423675,6809.894666,-23834.631332,-83964.066581
2181.426233,-17024.736666,8586.388927,-76303.111601
2181.428790,22206.178260,-23834.631332,-82891.532884
2181.431347,-25759.166782,4293.194464,-75230.577904
2181.433905,10807.006753,-21762.054695,-84270.504780
2181.436462,-29756.278868,-2220.617826,-75537.016103
2181.439019,12287.418637,-26647.413912,-83810.847481
2181.441577,-32865.143825,2516.700203,-71246.881314
2181.444134,25167.002028,148.041188,-70787.224015
2181.446691,-5921.647536,-16432.571912,-86109.133975
2181.449249,15692.365970,13471.748144,-65271.336430
2181.451806,-16284.530724,-12583.501014,-84117.285680
2181.454363,-1332.370696,17024.736666,-65271.336430
2181.456922,21465.972318,3404.947333,-85802.695776
2181.459480,-11547.212695,-3404.947333,-72012.976812
2181.462038,16728.654289,9770.718434,-89020.296868
2181.464597,14508.036463,5033.400406,-73545.167808
2181.467155,-6069.688724,-9918.759623,-85955.914876
2181.469713,-24870.919651,20281.642811,-66190.651027
2181.472272,26055.249158,-14656.077652,-87488.105872
2181.474830,-18357.107362,3256.906145,-70327.566716
2181.477388,26055.249158,-12139.377449,-79214.274493
2181.479946,-9326.594869,13915.871710,-71400.100414
2181.482505,29164.114115,-12879.583391,-85189.819378
2181.485063,-22798.343014,6513.812290,-73085.510509
2181.487621,23834.631332,-1332.370696,-77528.864398
2181.490180,3256.906145,6957.935855,-76149.892501
2181.492738,17912.983796,3256.906145,-72319.415011
2181.495296,6513.812290,1776.494261,-82891.532884
2181.497855,7402.059420,16432.571912,-74924.139704
2181.500413,-1036.288319,-7254.018232,-84883.381178
2181.502971,-26943.496289,6661.853478,-67416.403824
2181.505529,30644.525999,-6513.812290,-83044.751983
2181.508088,-41599.573940,-18949.272115,-80133.589091
2181.510646,15248.242405,-9474.636058,-79214.274493
2181.513204,-10362.883188,-296.082377,-69714.690318
2181.515763,1036.288319,-28719.990550,-92237.897959
2181.518321,-23390.507767,9918.759623,-73698.386908
2181.520879,18209.066173,-14211.954086,-75996.673402
2181.523438,-16876.695478,-2220.617826,-77988.521696
2181.525996,25167.002028,1776.494261,-73851.606007
2181.528554,-888.247130,-8882.471304,-79827.150892
2181.531112,12435.459826,-3997.112087,-72472.634111
2181.533671,-9918.759623,-5329.482782,-91625.021561
2181.536229,12583.501014,5181.441594,-63432.707234
2181.538787,-17024.736666,-16432.571912,-84423.723880
2181.541346,0.000000,1332.370696,-69408.252119
2181.543904,1924.535449,-10362.883188,-86262.353075
2181.546462,-14508.036463,-4589.276840,-72319.415011
2181.549021,3404.947333,-29904.320057,-88713.858668
2181.551579,-26647.413912,6661.853478,-75996.673402
2181.554137,17172.777854,-19245.354492,-82585.094684
2181.556695,-40415.244433,14211.954086,-68795.375720
2181.559259,43968.232955,-26499.372724,-92237.897959
2181.561818,-36122.049970,6513.812290,-73085.510509
2181.564377,51222.251186,1480.411884,-82585.094684
2181.566937,-33901.432144,16284.530724,-67263.184724
2181.569496,25018.960840,-11251.130318,-71246.881314
2181.572055,-1036.288319,8290.306550,-85496.257577
2181.574615,28868.031738,7105.977043,-59602.229744
2181.577174,-19245.354492,-6365.771101,-88407.420469
2181.579733,16728.654289,12139.377449,-68948.594820
2181.582292,11991.336260,-3552.988522,-78141.740796
2181.584852,-10510.924376,5773.606348,-67876.061123
2181.587411,-10658.965565,-4885.359217,-84576.942979
2181.589970,4145.153275,16876.695478,-65884.212828
2181.592529,12435.459826,-11695.253884,-85189.819378
2181.595089,-3849.070898,11251.130318,-72625.853210
2181.597648,32569.061448,-10658.965565,-89020.296868
2181.600207,-21465.972318,23242.466579,-66803.527426
2181.602766,26055.249158,-7550.100608,-87488.105872
2181.605326,-24278.754898,5921.647536,-72472.634111
2181.607885,33309.267390,-7698.141797,-79520.712692
2181.610444,-8734.430116,-3849.070898,-79061.055394
2181.613003,8438.347739,-5625.565159,-75996.673402
2181.615563,4293.194464,5033.400406,-76303.111601
2181.618122,-7105.977043,-23982.672521,-71246.881314
2181.620681,-10066.800811,-14211.954086,-83351.190182
2181.623240,-6365.771101,-740.205942,-75996.673402
2181.625800,-888.247130,-17172.777854,-81512.560987
2181.628359,-444.123565,-740.205942,-74770.920605
2181.630918,4293.194464,-7994.224174,-82431.875585
2181.633477,-22650.301825,4441.235652,-72012.976812
2181.636037,3108.864956,-14804.118840,-82431.875585
2181.638596,-28719.990550,7105.977043,-74158.044206
2181.641156,17616.901420,-23686.590144,-85496.257577
2181.643715,-21910.095883,8734.430116,-70327.566716
2181.646275,17912.983796,-12139.377449,-74158.044206
2181.648835,-20429.683999,-2960.823768,-77988.521696
2181.651394,11695.253884,-8734.430116,-74924.139704
2181.653954,-22502.260637,-16432.571912,-80133.589091
2181.656513,16432.571912,-592.164754,-68029.280222
2181.659073,6365.771101,-7994.224174,-81665.780087
2181.661633,6513.812290,7846.182985,-68642.156621
2181.664192,4145.153275,-12731.542202,-85649.476676
2181.666752,-5773.606348,11695.253884,-63892.364533
2181.669312,9918.759623,14063.912898,-89633.173266
2181.671871,-16136.489536,9326.594869,-70634.004916
2181.674431,15840.407159,-13027.624579,-82125.437386
2181.676991,-1036.288319,28868.031738,-71093.662214
2181.679550,15692.365970,-19837.519246,-86875.229473
2181.682110,-29016.072926,15840.407159,-68948.594820
2181.684670,22502.260637,-15692.365970,-85036.600278
2181.687229,-16876.695478,5477.523971,-73238.729609
2181.689789,18949.272115,-18505.148550,-82585.094684
2181.692349,-15988.448347,9622.677246,-72166.195912
2181.694908,33901.432144,-9770.718434,-81359.341888
2181.697468,-2072.576638,-4589.276840,-87794.544071
2181.700028,17320.819043,15248.242405,-61287.639840
2181.702587,-1480.411884,4441.235652,-83504.409282
2181.705147,7698.141797,6661.853478,-71246.881314
2181.707706,13619.789333,5033.400406,-83351.190182
2181.710266,3108.864956,-3997.112087,-78141.740796
2181.712826,-7698.141797,6661.853478,-83351.190182
2181.715385,8734.430116,-3997.112087,-74311.263306
2181.717945,-23982.672521,-13027.624579,-77528.864398
2181.720505,-6069.688724,15840.407159,-70174.347617
2181.723064,19541.436869,-31384.731941,-87947.763170
2181.725624,-28423.908173,296.082377,-74770.920605
2181.728184,28571.949361,-25018.960840,-89326.735067
2181.730743,-26795.455100,3108.864956,-72319.415011
2181.733303,13471.748144,-24130.713709,-89020.296868
2181.735863,-17912.983796,7846.182985,-71093.662214
2181.738422,18801.230927,-13915.871710,-78907.836294
2181.740982,1036.288319,-12287.418637,-85343.038477
2181.743542,2664.741391,8734.430116,-69408.252119
2181.746102,7105.977043,-15248.242405,-81665.780087
2181.748662,-34641.638086,-6069.688724,-77375.645298
2181.751222,9030.512492,-30940.608376,-85496.257577
2181.753782,-30792.567187,10362.883188,-68488.937521
2181.756341,10066.800811,-32421.020260,-86722.010374
2181.758901,-13767.830521,7846.182985,-70021.128517
2181.761461,22650.301825,-31532.773129,-87641.324971
2181.764021,-18357.107362,13323.706956,-70174.347617
2181.766581,-6957.935855,-15692.365970,-84423.723880
2181.769141,-4589.276840,15544.324782,-70327.566716
2181.771701,43820.191766,3256.906145,-73851.606007
2181.774261,-16432.571912,-3256.906145,-83504.409282
2181.776821,23538.548956,18061.024985,-79367.493593
2181.779381,5921.647536,-1332.370696,-81818.999186
2181.781941,-5625.565159,5033.400406,-70174.347617
2181.784501,-3552.988522,-888.247130,-84883.381178
2181.787061,8438.347739,-6809.894666,-74158.044206
2181.789621,592.164754,-8586.388927,-81052.903688
2181.792181,-2072.576638,8734.430116,-74770.920605
2181.794741,13915.871710,-13175.665768,-84883.381178
2181.797300,-25611.125593,10955.047942,-71246.881314
2181.799860,12435.459826,-13175.665768,-83964.066581
2181.802420,-6069.688724,14508.036463,-73698.386908
2181.804980,33753.390955,-4145.153275,-77682.083497
2181.807540,-10362.883188,13323.706956,-74924.139704
2181.810100,43524.109390,1332.370696,-77222.426198
2181.812660,-17764.942608,7550.100608,-74617.701505
2181.815220,22206.178260,13175.665768,-66650.308326
2181.817780,-14359.995275,-10658.965565,-82125.437386
2181.820340,444.123565,10214.842000,-73238.729609
2181.822900,15692.365970,3849.070898,-78601.398095
2181.825460,-27831.743419,-17320.819043,-77528.864398
2181.828020,15692.365970,-26351.331535,-84883.381178
2181.830580,-25315.043216,7698.141797,-72625.853210
2181.833140,-2220.617826,-26351.331535,-83351.190182
2181.835699,-26351.331535,7994.224174,-72625.853210
2181.838259,21614.013506,-20133.601622,-86568.791274
2181.840819,-27979.784608,13175.665768,-66497.089226
2181.843379,21762.054695,-20429.683999,-81665.780087
2181.845940,-27091.537477,10658.965565,-72166.195912
2181.848500,12139.377449,2072.576638,-66037.431928
2181.851060,-14952.160028,-3404.947333,-78754.617194
2181.853620,8438.347739,-2368.659014,-66956.746525
2181.856181,-3552.988522,-16432.571912,-86875.229473
2181.858741,7698.141797,-444.123565,-64964.898230
2181.861301,148.041188,-17616.901420,-84270.504780
2181.863862,-5329.482782,-296.082377,-69867.909418
2181.866422,-1628.453072,-1036.288319,-85955.914876
2181.868982,-20577.725188,444.123565,-69408.252119
2181.871543,19541.436869,-1924.535449,-85496.257577
2181.874103,-740.205942,3997.112087,-78601.398095
2181.876663,14063.912898,-7698.141797,-82738.313784
2181.879223,-4145.153275,23686.590144,-74464.482406
2181.881784,20281.642811,-20577.725188,-85649.476676
2181.884344,-21021.848753,17616.901420,-73851.606007
2181.886904,32569.061448,-15544.324782,-80593.246390
2181.889465,-20873.807564,5033.400406,-74617.701505
2181.892025,31384.731941,-3849.070898,-79214.274493
2181.894585,-12287.418637,12879.583391,-73238.729609
2181.897146,17320.819043,-3404.947333,-62206.954438
2181.899706,-12139.377449,-7254.018232,-85955.914876
2181.902266,8142.265362,13767.830521,-64198.802732
2181.904826,14063.912898,1036.288319,-80286.808190
2181.907387,5773.606348,7402.059420,-77375.645298
2181.909947,6365.771101,1628.453072,-83657.628382
2181.912507,5773.606348,9770.718434,-72932.291410
2181.915068,-13767.830521,-3997.112087,-80286.808190
2181.917628,-4145.153275,13767.830521,-74924.139704
2181.920188,1036.288319,-25018.960840,-88867.077768
2181.922749,-15396.283594,18505.148550,-66343.870127
2181.925309,42783.903448,-5773.606348,-83964.066581
2181.927869,-38638.750172,-9622.677246,-67569.622924
2181.930430,27239.578666,-25463.084405,-79214.274493
2181.932990,-30052.361245,5181.441594,-74770.920605
2181.935550,18505.148550,-25018.960840,-81512.560987
2181.938110,-7105.977043,-2664.741391,-75690.235202
2181.940671,24278.754898,-1036.288319,-71706.538613
2181.943231,-13619.789333,-10214.842000,-90399.268764
2181.945791,5033.400406,9326.594869,-64964.898230
2181.948323,-5181.441594,-13027.624579,-87947.763170
2181.950855,-14804.118840,1628.453072,-74617.701505
2181.953386,-1480.411884,-20133.601622,-83964.066581
2181.955918,-10510.924376,-6069.688724,-72472.634111
2181.958449,4885.359217,-24870.919651,-83657.628382
2181.960981,-31384.731941,1776.494261,-75843.454302
2181.963513,16136.489536,-23094.425390,-80899.684589
2181.966044,-37010.297100,-444.123565,-72012.976812
2181.968576,25315.043216,-18801.230927,-86722.010374
2181.971107,-43228.027013,3108.864956,-74617.701505
2181.973639,21762.054695,7994.224174,-68795.375720
2181.976171,14804.118840,3849.070898,-85189.819378
2181.978702,2368.659014,8142.265362,-69101.813920
2181.981234,148.041188,10362.883188,-86722.010374
2181.983765,25315.043216,3404.947333,-67263.184724
2181.986297,-5477.523971,-6069.688724,-89939.611465
2181.988829,16728.654289,8734.430116,-70480.785816
2181.991360,7994.224174,-14656.077652,-82278.656485
2181.993892,-2220.617826,8142.265362,-69408.252119
2181.996424,-5773.606348,2072.576638,-81972.218286
2181.998955,-26203.290347,14804.118840,-71400.100414
2182.001487,25167.002028,-25315.043216,-85343.038477
2182.004018,-13471.748144,14359.995275,-69867.909418
2182.006550,34345.555709,-8142.265362,-85802.695776
2182.009082,-17912.983796,16284.530724,-69561.471218
2182.011613,24722.878463,-9178.553681,-82125.437386
2182.014145,-13175.665768,26943.496289,-69255.033019
2182.016676,24574.837274,-14952.160028,-83351.190182
2182.019208,-25018.960840,15544.324782,-71246.881314
2182.021740,52554.621882,-10658.965565,-78907.836294
2182.024271,-29608.237680,-21169.889941,-90705.706963
2182.026803,-6217.729913,3256.906145,-65730.993728
2182.029335,888.247130,-14508.036463,-80440.027290
2182.031866,-22650.301825,-2960.823768,-74464.482406
2182.034398,2072.576638,-7402.059420,-83351.190182
2182.036929,-5033.400406,1036.288319,-66190.651027
2182.039461,-444.123565,-19689.478057,-91778.240660
2182.041993,-14359.995275,16136.489536,-73851.606007
2182.044524,9474.636058,-18505.148550,-79214.274493
2182.047056,-31088.649564,9918.759623,-69867.909418
2182.049565,27535.661042,-18209.066173,-84730.162079
2182.052074,-17912.983796,9326.594869,-69561.471218
2182.054583,18653.189738,-15100.201217,-75383.797003
2182.057092,-15840.407159,-2072.576638,-77528.864398
2182.059601,9326.594869,-10955.047942,-75843.454302
2182.062110,-22058.137072,-15248.242405,-78754.617194
2182.064619,15544.324782,-2072.576638,-66650.308326
2182.067128,-296.082377,-9474.636058,-82738.313784
2182.069637,13175.665768,-444.123565,-68795.375720
2182.072146,25611.125593,-1332.370696,-80899.684589
2182.074654,-20873.807564,-1628.453072,-81052.903688
2182.077163,12731.542202,10066.800811,-79367.493593
2182.079672,-6365.771101,13027.624579,-70021.128517
2182.082181,2664.741391,-13323.706956,-85343.038477
2182.084690,1184.329507,22650.301825,-72472.634111
2182.087199,21465.972318,-20725.766376,-81972.218286
2182.089708,-28868.031738,11251.130318,-74464.482406
2182.092217,25018.960840,-15100.201217,-84883.381178
2182.094726,-22798.343014,11547.212695,-72012.976812
2182.097235,20133.601622,1480.411884,-64352.021832
2182.099744,-6365.771101,-2812.782580,-82278.656485
2182.102253,23242.466579,10955.047942,-69867.909418
2182.104762,10955.047942,-3849.070898,-85496.257577
2182.107271,9622.677246,13619.789333,-68182.499322
2182.109780,-4293.194464,2812.782580,-87028.448573
2182.112289,18653.189738,14359.995275,-66956.746525
2182.114798,-9770.718434,-2516.700203,-82738.313784
2182.117307,10362.883188,9918.759623,-70327.566716
2182.119816,9030.512492,-11991.336260,-86875.229473
2182.122325,-52258.539505,-1776.494261,-68948.594820
2182.124834,21910.095883,-12287.418637,-81512.560987
2182.127343,-45448.644839,1184.329507,-71400.100414
2182.129852,28423.908173,-39082.873738,-89173.515967
2182.132361,-28719.990550,10807.006753,-66803.527426
2182.134870,22058.137072,-31236.690752,-91165.364262
2182.137379,-19689.478057,7550.100608,-71246.881314
2182.139888,26203.290347,-14211.954086,-83810.847481
2182.142397,-22650.301825,-592.164754,-77835.302597
2182.144906,9918.759623,-2516.700203,-73545.167808
2182.147415,-3552.988522,-13619.789333,-89020.296868
2182.149935,1036.288319,4737.318029,-67876.061123
2182.152455,-1628.453072,-11399.171507,-82738.313784
2182.154975,-26499.372724,4589.276840,-73698.386908
2182.157495,-1332.370696,-26351.331535,-84423.723880
2182.160015,-24426.796086,2664.741391,-68182.499322
2182.162535,15544.324782,-25167.002028,-84270.504780
2182.165055,-12731.542202,11399.171507,-70634.004916
2182.167575,14952.160028,-27091.537477,-84270.504780
2182.170095,-6513.812290,17024.736666,-72625.853210
2182.172615,11991.336260,-2220.617826,-73391.948708
2182.175135,-24574.837274,6217.729913,-83657.628382
2182.177655,33605.349767,13619.789333,-72319.415011
2182.180175,148.041188,148.041188,-79827.150892
2182.182695,20873.807564,8734.430116,-75996.673402
2182.185215,-148.041188,2368.659014,-74924.139704
2182.187735,1184.329507,-2220.617826,-69867.909418
2182.190255,-8438.347739,1036.288319,-82891.532884
2182.192775,-6069.688724,8290.306550,-74464.482406
2182.195295,13323.706956,-14359.995275,-78294.959896
2182.197815,-12583.501014,13323.706956,-75230.577904
2182.200335,34641.638086,-13767.830521,-84576.942979
2182.202855,-6661.853478,14211.954086,-70174.347617
2182.205375,15988.448347,-6069.688724,-80286.808190
2182.207895,-18209.066173,24278.754898,-71400.100414
2182.210415,29460.196492,-3256.906145,-77528.864398
2182.212935,-7846.182985,12583.501014,-71400.100414
2182.215455,19393.395680,-11547.212695,-75537.016103
2182.217975,13915.871710,11843.295072,-74464.482406
2182.220495,-3849.070898,-23538.548956,-81359.341888
2182.223015,-23686.590144,-14804.118840,-79980.369991
2182.225535,-1924.535449,-3849.070898,-76149.892501
2182.228055,-888.247130,-15396.283594,-79214.274493
2182.230575,-9326.594869,2072.576638,-73085.510509
2182.233095,148.041188,-6957.935855,-81512.560987
2182.235615,-13175.665768,6217.729913,-70174.347617
2182.238135,2516.700203,-8734.430116,-81818.999186
2182.240655,-22650.301825,5773.606348,-69408.252119
2182.243175,8290.306550,-17024.736666,-84270.504780
2182.245695,-18801.230927,6661.853478,-77069.207099
2182.248215,21169.889941,-8734.430116,-73085.510509
2182.250716,-10510.924376,-1924.535449,-73391.948708
2182.253216,0.000000,-8882.471304,-74617.701505
2182.255717,-24278.754898,-14804.118840,-80746.465489
2182.258217,18505.148550,-1924.535449,-63739.145434
2182.260717,-11399.171507,-11695.253884,-84883.381178
2182.263218,29016.072926,-296.082377,-70480.785816
2182.265718,-15544.324782,-12731.542202,-79367.493593
2182.268219,15396.283594,18801.230927,-64045.583633
2182.270719,15396.283594,740.205942,-84270.504780
2182.273219,-31828.855506,5921.647536,-72779.072310
2182.275720,29016.072926,-148.041188,-79367.493593
2182.278220,-8438.347739,21762.054695,-73391.948708
2182.280721,21317.931130,-27091.537477,-89173.515967
2182.283221,-19541.436869,17024.736666,-64811.679131
2182.285722,22650.301825,-29016.072926,-91012.145162
2182.288222,-32865.143825,13767.830521,-72166.195912
2182.290722,32124.937883,-22946.384202,-85649.476676
2182.293223,-19541.436869,13767.830521,-68948.594820
2182.295723,28275.866984,-21169.889941,-87334.886772
2182.298224,-148.041188,5329.482782,-86415.572174
2182.300724,18653.189738,8438.347739,-71859.757712
2182.303224,-2664.741391,-2812.782580,-81972.218286
2182.305725,19689.478057,16876.695478,-71246.881314
2182.308225,-5773.606348,-4589.276840,-85189.819378
2182.310726,9326.594869,8882.471304,-67876.061123
2182.313226,12879.583391,-10362.883188,-85802.695776
2182.315726,-22798.343014,6365.771101,-70174.347617
2182.318227,6217.729913,4441.235652,-78601.398095
2182.320727,-27979.784608,-18505.148550,-67416.403824
2182.323228,20133.601622,-37454.420665,-88100.982270
2182.325728,-25759.166782,11103.089130,-70327.566716
2182.328229,26943.496289,-26351.331535,-84730.162079
2182.330729,-27979.784608,5329.482782,-72779.072310
2182.333229,25611.125593,-15100.201217,-83657.628382
2182.335730,-24130.713709,2368.659014,-74924.139704
2182.338230,14508.036463,-12731.542202,-75690.235202
2182.340731,-17616.901420,-3404.947333,-80440.027290
2182.343231,23686.590144,-2516.700203,-71246.881314
2182.345731,-8290.306550,-5773.606348,-86415.572174
2182.348232,-7846.182985,-4145.153275,-69408.252119
2182.350746,-19541.436869,-10955.047942,-79214.274493
2182.353260,-6365.771101,1036.288319,-69101.813920
2182.355774,-4293.194464,-11843.295072,-81665.780087
2182.358288,-888.247130,-444.123565,-75690.235202
2182.360802,-9326.594869,-18061.024985,-86262.353075
2182.363316,5921.647536,12139.377449,-72625.853210
2182.365830,12139.377449,-20281.642811,-85802.695776
2182.368344,-22502.260637,22206.178260,-70021.128517
2182.370858,40267.203245,-1776.494261,-90858.926063
2182.373372,-7105.977043,4441.235652,-74311.263306
2182.375886,36122.049970,-13619.789333,-83197.971083
2182.378400,-11843.295072,11695.253884,-73851.606007
2182.380914,30348.443622,-10658.965565,-74617.701505
2182.383428,-18357.107362,10658.965565,-75537.016103
2182.385942,19393.395680,3849.070898,-73698.386908
2182.388456,3108.864956,-4145.153275,-76609.549800
2182.390970,12583.501014,5033.400406,-68642.156621
2182.393484,11843.295072,-296.082377,-91318.583362
2182.395998,-148.041188,12287.418637,-74158.044206
2182.398512,2072.576638,-8734.430116,-85955.914876
2182.401026,-5921.647536,21021.848753,-74311.263306
2182.403540,8734.430116,-20725.766376,-85802.695776
2182.406054,-16432.571912,16580.613101,-70174.347617
2182.408568,25907.207970,-21465.972318,-91012.145162
2182.411082,-40711.326810,10807.006753,-67263.184724
2182.413596,27683.702231,-12583.501014,-83197.971083
2182.416110,-52110.498317,-6365.771101,-68642.156621
2182.418624,22354.219448,-37454.420665,-86875.229473
2182.421138,-17320.819043,-3404.947333,-78448.178995
2182.423652,22650.301825,-10362.883188,-72012.976812
2182.426166,-9030.512492,-8290.306550,-87181.667672
2182.428680,16580.613101,9474.636058,-68642.156621
2182.431194,-9622.677246,-12879.583391,-83197.971083
2182.433708,3552.988522,5477.523971,-68029.280222
2182.436222,-11547.212695,-11251.130318,-91012.145162
2182.438736,8142.265362,4441.235652,-64811.679131
2182.441250,-4293.194464,-10362.883188,-82738.313784
2182.443764,-3849.070898,296.082377,-68335.718422
2182.446278,-5329.482782,-29164.114115,-86568.791274
2182.448792,-25463.084405,11251.130318,-64352.021832
2182.451316,8290.306550,-23982.672521,-87028.448573
2182.453841,-22206.178260,15840.407159,-69408.252119
2182.456366,16284.530724,-35825.967593,-88560.639569
2182.458891,-10955.047942,29164.114115,-64505.240932
2182.461416,42487.821071,-19245.354492,-89020.296868
2182.463941,-33013.185013,23242.466579,-67416.403824
2182.466466,41007.409187,-4589.276840,-88100.982270
2182.468991,-13471.748144,5921.647536,-73545.167808
2182.471516,18061.024985,296.082377,-66650.308326
2182.474040,-3849.070898,-1776.494261,-85802.695776
2182.476565,13915.871710,740.205942,-70174.347617
2182.479090,-5773.606348,-2664.741391,-84270.504780
2182.481615,-3701.029710,11251.130318,-69867.909418
2182.484140,2664.741391,-5181.441594,-82738.313784
2182.486665,-2368.659014,6513.812290,-70634.004916
2182.489190,15692.365970,3997.112087,-78448.178995
2182.491715,1776.494261,7402.059420,-76456.330700
2182.494240,26795.455100,-16284.530724,-88254.201370
2182.496765,-18801.230927,28423.908173,-69867.909418
2182.499289,25167.002028,-18505.148550,-85496.257577
2182.501814,-36862.255912,11399.171507,-70634.004916
2182.504339,56847.816346,-10510.924376,-84730.162079
2182.506864,-37454.420665,-11399.171507,-74464.482406
2182.509389,29164.114115,-11695.253884,-76303.111601
2182.511914,-26943.496289,-4441.235652,-72625.853210
2182.514439,10658.965565,-23390.507767,-80899.684589
2182.516964,-13027.624579,2220.617826,-73238.729609
2182.519489,6513.812290,9030.512492,-62666.611736
2182.522013,1036.288319,-13471.748144,-85802.695776
2182.524538,-6069.688724,13323.706956,-67876.061123
2182.527063,1628.453072,-11547.212695,-81359.341888
2182.529588,-23390.507767,7105.977043,-68335.718422
2182.532113,6365.771101,-19245.354492,-85036.600278
2182.534638,-23390.507767,4293.194464,-73085.510509
2182.537163,13619.789333,-28868.031738,-86875.229473
2182.539688,-25018.960840,-740.205942,-72625.853210
2182.542213,2368.659014,-31384.731941,-85955.914876
2182.544737,-25759.166782,1184.329507,-72319.415011
2182.547262,25611.125593,-18061.024985,-78141.740796
2182.549787,-26203.290347,4441.235652,-75690.235202
2182.552322,37454.420665,-10214.842000,-76915.987999
2182.554856,-14656.077652,-296.082377,-81052.903688
2182.557391,44412.356520,23094.425390,-68029.280222
2182.559925,-22650.301825,2368.659014,-82278.656485
2182.562459,23390.507767,14508.036463,-68642.156621
2182.564994,8734.430116,3997.112087,-83964.066581
2182.567528,-10807.006753,6217.729913,-64964.898230
2182.570062,27239.578666,-30940.608376,-89786.392366
2182.572597,-25759.166782,21465.972318,-69101.813920
2182.575131,34789.679274,-22946.384202,-88560.639569
2182.577665,-28423.908173,11251.130318,-70327.566716
2182.580200,22502.260637,-12583.501014,-81972.218286
2182.582734,-2368.659014,6365.771101,-77069.207099
2182.585268,28127.825796,-3108.864956,-77988.521696
2182.587803,-3997.112087,14656.077652,-75077.358804
2182.590337,37898.544230,7105.977043,-76915.987999
2182.592871,-14804.118840,148.041188,-79980.369991
2182.595406,-14063.912898,13175.665768,-67876.061123
2182.597940,17320.819043,-3108.864956,-82891.532884
2182.600474,-23982.672521,-16728.654289,-72472.634111
2182.603009,10658.965565,3108.864956,-79367.493593
2182.605543,-22058.137072,-11399.171507,-72779.072310
2182.608077,7105.977043,-30348.443622,-84270.504780
2182.610612,-25167.002028,7550.100608,-72625.853210
2182.613146,-592.164754,-21910.095883,-84270.504780
2182.615680,-27091.537477,9030.512492,-72472.634111
2182.618215,25611.125593,-18949.272115,-86415.572174
2182.620749,-5477.523971,-2960.823768,-72779.072310
2182.623283,15988.448347,-11399.171507,-75077.358804
2182.625818,-17320.819043,-592.164754,-80899.684589
2182.628352,6513.812290,-2812.782580,-70787.224015
2182.630886,-6365.771101,-11695.253884,-80286.808190
2182.633421,5477.523971,-4885.359217,-62666.611736
2182.635955,-10955.047942,-26647.413912,-87947.763170
2182.638489,13767.830521,6957.935855,-63432.707234
2182.641024,888.247130,-10066.800811,-80593.246390
2182.643558,1184.329507,6957.935855,-63739.145434
2182.646092,22206.178260,-8586.388927,-83657.628382
2182.648627,-27387.619854,-2072.576638,-77222.426198
2182.651161,34789.679274,7105.977043,-77375.645298
2182.653703,-18949.272115,16580.613101,-73851.606007
2182.656245,21910.095883,-8586.388927,-84117.285680
2182.658787,-16876.695478,34345.555709,-66190.651027
2182.661329,11547.212695,-25759.166782,-84730.162079
2182.663871,-26055.249158,10362.883188,-70787.224015
2182.666413,32272.979071,-16432.571912,-82585.094684
2182.668955,-10066.800811,6809.894666,-73698.386908
2182.671497,21910.095883,1332.370696,-68029.280222
2182.674039,-4737.318029,2220.617826,-79520.712692
2182.676581,17468.860231,9622.677246,-66343.870127
2182.679122,-3997.112087,-1776.494261,-85343.038477
2182.681664,19097.313304,11399.171507,-66650.308326
2182.684206,15544.324782,8586.388927,-82431.875585
2182.686748,7402.059420,-2664.741391,-75690.235202
2182.689290,-1332.370696,8586.388927,-80133.589091
2182.691832,3404.947333,-3849.070898,-74464.482406
2182.694374,-17764.942608,-30940.608376,-83810.847481
2182.696916,-18061.024985,16284.530724,-67569.622924
2182.699458,15544.324782,-39230.914926,-85189.819378
2182.702000,-19985.560434,-5477.523971,-72625.853210
2182.704542,19097.313304,-18949.272115,-87794.544071
2182.707084,-28571.949361,5329.482782,-69408.252119
2182.709626,10510.924376,-18357.107362,-82891.532884
2182.712168,-17024.736666,4589.276840,-75383.797003
2182.714710,21762.054695,-22354.219448,-83197.971083
2182.717252,-16876.695478,9918.759623,-71400.100414
2182.719793,3552.988522,11399.171507,-71400.100414
2182.722335,-5181.441594,-12139.377449,-86722.010374
2182.724877,-9474.636058,-740.205942,-64045.583633
2182.727419,-17912.983796,-11547.212695,-80593.246390
2182.729961,3108.864956,-14804.118840,-72012.976812
2182.732503,-1628.453072,-7698.141797,-79980.369991
2182.735045,2960.823768,2812.782580,-73698.386908
2182.737587,-9326.594869,-11103.089130,-79827.150892
2182.740129,2516.700203,1480.411884,-76915.987999
2182.742671,-15248.242405,-11695.253884,-85649.476676
2182.745213,-16728.654289,30792.567187,-62666.611736
2182.747755,41599.573940,-10807.006753,-85496.257577
2182.750297,-13915.871710,19097.313304,-70940.443115
2182.752839,42191.738694,-5477.523971,-85955.914876
2182.755387,-23390.507767,14359.995275,-64198.802732
2182.757935,13175.665768,-11695.253884,-80133.589091
2182.760484,-14508.036463,11251.130318,-74770.920605
2182.763032,31976.896694,-5921.647536,-74158.044206
2182.765581,-1480.411884,888.247130,-74158.044206
2182.768129,22650.301825,6809.894666,-70940.443115
2182.770677,3849.070898,2516.700203,-83504.409282
2182.773226,-3108.864956,11399.171507,-69561.471218
2182.775774,3552.988522,1924.535449,-79827.150892
2182.778323,-11251.130318,17616.901420,-74770.920605
2182.780871,21465.972318,-13619.789333,-83810.847481
2182.783419,-21465.972318,10510.924376,-69561.471218
2182.785968,37750.503042,-10955.047942,-86262.353075
2182.788516,-53146.786636,-8882.471304,-77528.864398
2182.791065,12139.377449,-17764.942608,-81512.560987
2182.793613,-29904.320057,-1184.329507,-66803.527426
2182.796161,19689.478057,-22058.137072,-75230.577904
2182.798710,-13323.706956,1924.535449,-80440.027290
2182.801258,23094.425390,4885.359217,-67569.622924
2182.803807,-13767.830521,-13175.665768,-87028.448573
2182.806355,7254.018232,7550.100608,-66956.746525
2182.808903,-8290.306550,-7994.224174,-85955.914876
2182.811452,6069.688724,4441.235652,-66650.308326
2182.814000,-3404.947333,-9918.759623,-87641.324971
2182.816549,11251.130318,888.247130,-69867.909418
2182.819097,7254.018232,-23390.507767,-79520.712692
2182.821645,-37306.379477,-6069.688724,-70787.224015
2182.824194,4441.235652,-18505.148550,-82738.313784
2182.826742,-25759.166782,-1480.411884,-76915.987999
2182.829291,22798.343014,-17468.860231,-82585.094684
2182.831839,-28127.825796,2812.782580,-66803.527426
2182.834387,27683.702231,-7994.224174,-83044.751983
2182.836936,-296.082377,18357.107362,-71706.538613
2182.839484,9918.759623,-7994.224174,-81206.122788
2182.842033,-6661.853478,21021.848753,-76456.330700
2182.844581,30052.361245,8882.471304,-71859.757712
2182.847129,296.082377,-17468.860231,-86875.229473
2182.849678,14359.995275,12139.377449,-64811.679131
2182.852226,296.082377,-11991.336260,-88713.858668
2182.854775,3849.070898,7698.141797,-72779.072310
2182.857328,-3997.112087,-5181.441594,-83044.751983
2182.859881,2072.576638,2960.823768,-69714.690318
2182.862435,9770.718434,-1924.535449,-81206.122788
2182.864988,6069.688724,15396.283594,-70174.347617
2182.867542,11547.212695,1480.411884,-78294.959896
2182.870095,-6957.935855,29756.278868,-69408.252119
2182.872649,13619.789333,-18949.272115,-88407.420469
2182.875202,-26795.455100,20577.725188,-68335.718422
2182.877756,39378.956114,-26351.331535,-87181.667672
2182.880309,-44116.274143,11695.253884,-69561.471218
2182.882863,41007.409187,-8734.430116,-83504.409282
2182.885416,-32124.937883,-15544.324782,-68642.156621
2182.887969,18653.189738,-24722.878463,-76149.892501
2182.890523,-28868.031738,4589.276840,-75537.016103
2182.893076,21614.013506,-20133.601622,-78294.959896
