#time,accel_x,accel_y,accel_z
2047.844289,-17172.777854,11251.130318,-77222.426198
2047.846762,7105.977043,15840.407159,-71859.757712
2047.849234,-6069.688724,3256.906145,-80440.027290
2047.851707,-17320.819043,1480.411884,-70940.443115
2047.854179,-4293.194464,-21317.931130,-88560.639569
2047.856652,-7105.977043,5625.565159,-71706.538613
2047.859124,10807.006753,-17172.777854,-89786.392366
2047.861597,-22206.178260,8438.347739,-73391.948708
2047.864070,31088.649564,-14063.912898,-83351.190182
2047.866542,-32272.979071,13175.665768,-65884.212828
2047.869015,22798.343014,-13915.871710,-83044.751983
2047.871487,-19097.313304,13175.665768,-67876.061123
2047.873960,23686.590144,-10807.006753,-83351.190182
2047.876432,-7698.141797,7105.977043,-82585.094684
2047.878905,14804.118840,10658.965565,-66956.746525
2047.881377,-15988.448347,-11251.130318,-85036.600278
2047.883850,-3108.864956,6809.894666,-73545.167808
2047.886323,-6957.935855,-13175.665768,-87181.667672
2047.888795,-6513.812290,2960.823768,-77528.864398
2047.891268,-5329.482782,-3108.864956,-78754.617194
2047.893740,-5773.606348,2812.782580,-81972.218286
2047.896213,-3997.112087,-7550.100608,-80440.027290
2047.898685,-11547.212695,444.123565,-77835.302597
2047.901158,296.082377,-12731.542202,-83351.190182
2047.903630,-15692.365970,8882.471304,-71246.881314
2047.906103,28423.908173,-12435.459826,-79367.493593
2047.908576,-24722.878463,9474.636058,-71859.757712
2047.911048,41155.450375,-13175.665768,-82891.532884
2047.913521,-35529.885216,14656.077652,-72779.072310
2047.915993,35677.926404,-7105.977043,-76303.111601
2047.918466,-23834.631332,7402.059420,-77069.207099
2047.920938,40415.244433,4885.359217,-70787.224015
2047.923505,-34789.679274,-1480.411884,-80746.465489
2047.926072,-59512.557737,-13027.624579,-76456.330700
2047.928639,99483.678605,-12139.377449,-66803.527426
2047.931206,-119765.321416,25907.207970,-52094.493864
2047.933773,83199.147881,-40563.285622,-96987.690047
2047.936339,-39526.997303,39378.956114,-87334.886772
2047.938906,-52554.621882,-4737.318029,-103422.892230
2047.941473,88380.589475,-19541.436869,-64811.679131
2047.944040,-10807.006753,-3404.947333,-60674.763442
2047.946607,-54035.033766,13619.789333,-62973.049936
2047.949174,64842.040519,-46336.891969,-81972.218286
2047.951741,20133.601622,-13175.665768,-78907.836294
2047.954307,-740.205942,-1332.370696,-71246.881314
2047.956874,9474.636058,-15692.365970,-87794.544071
2047.959441,26055.249158,7254.018232,-71553.319513
2047.962008,-36270.091158,4885.359217,-78141.740796
2047.964575,28127.825796,-444.123565,-75537.016103
2047.967142,-16728.654289,3552.988522,-73085.510509
2047.969708,13323.706956,-11399.171507,-77835.302597
2047.972275,9030.512492,-7698.141797,-81206.122788
2047.974842,4145.153275,-5033.400406,-76915.987999
2047.977409,-296.082377,-23834.631332,-85496.257577
2047.979976,-14804.118840,11103.089130,-72012.976812
2047.982543,15544.324782,-23538.548956,-84423.723880
2047.985110,-22650.301825,10214.842000,-71553.319513
2047.987676,36862.255912,-17468.860231,-83964.066581
2047.990243,-7105.977043,6217.729913,-72166.195912
2047.992810,30496.484810,-26055.249158,-85343.038477
2047.995377,-18209.066173,4885.359217,-69101.813920
2047.997944,14656.077652,-9326.594869,-81972.218286
2048.000511,-12139.377449,10066.800811,-72166.195912
2048.003077,14063.912898,-4293.194464,-76149.892501
2048.005644,-740.205942,-1924.535449,-80286.808190
2048.008211,16728.654289,-4293.194464,-74617.701505
2048.010778,-26499.372724,-10955.047942,-78601.398095
2048.013345,12879.583391,-19393.395680,-83964.066581
2048.015912,-19245.354492,-2516.700203,-77528.864398
2048.018479,10955.047942,-18653.189738,-73545.167808
2048.021045,-4737.318029,-3108.864956,-79061.055394
2048.023612,296.082377,4737.318029,-67722.842023
2048.026109,109106.355851,-11103.089130,-89173.515967
2048.028605,-104813.161387,31532.773129,-56537.847752
2048.031102,87492.342344,-53442.869012,-97600.566445
2048.033598,-31384.731941,23834.631332,-76609.549800
2048.036095,-80978.530055,-22650.301825,-92850.774358
2048.038591,110882.850112,-40267.203245,-81512.560987
2048.041088,-34197.514520,14063.912898,-56078.190454
2048.043584,13027.624579,10955.047942,-88713.858668
2048.046081,29756.278868,10955.047942,-74311.263306
2048.048577,-45596.686027,16728.654289,-68795.375720
2048.051074,-45004.521274,6217.729913,-71553.319513
2048.053570,52998.745447,-32865.143825,-85802.695776
2048.056067,-35381.844028,17024.736666,-73851.606007
2048.058563,-17764.942608,-21169.889941,-89020.296868
2048.061060,14804.118840,1184.329507,-69867.909418
2048.063556,-14804.118840,-11103.089130,-81359.341888
2048.066053,-26647.413912,14063.912898,-73085.510509
2048.068549,40267.203245,-11399.171507,-86568.791274
2048.071046,-41303.491564,21169.889941,-67722.842023
2048.073542,31236.690752,-23242.466579,-92237.897959
2048.076039,2368.659014,-1480.411884,-76149.892501
2048.078535,8882.471304,10510.924376,-65730.993728
2048.081032,-23686.590144,-4441.235652,-87181.667672
2048.083528,16432.571912,7698.141797,-74004.825107
2048.086025,-7550.100608,-296.082377,-83657.628382
2048.088521,12139.377449,-148.041188,-72012.976812
2048.091018,-15100.201217,4885.359217,-81052.903688
2048.093514,-10658.965565,5181.441594,-75230.577904
2048.096011,444.123565,-3552.988522,-78907.836294
2048.098507,-15248.242405,-740.205942,-73391.948708
2048.101004,10066.800811,-11251.130318,-86568.791274
2048.103500,-2664.741391,5329.482782,-69714.690318
2048.105997,11399.171507,-8142.265362,-85189.819378
2048.108493,-23242.466579,14508.036463,-68795.375720
2048.110990,18949.272115,-4441.235652,-81359.341888
2048.113486,-8290.306550,15544.324782,-67109.965625
2048.115983,-5773.606348,888.247130,-74311.263306
2048.118479,17172.777854,-33013.185013,-86568.791274
2048.120976,40859.367998,11991.336260,-74924.139704
2048.123472,-100223.884547,7846.182985,-84730.162079
2048.126044,67950.905476,-26351.331535,-98366.661943
2048.128615,-26055.249158,35677.926404,-107253.369720
2048.131186,-107922.026344,-740.205942,-102350.358533
2048.133757,139602.840661,-33161.226202,-67876.061123
2048.136328,-43079.985824,24278.754898,-33401.763713
2048.138899,-6069.688724,-21169.889941,-71246.881314
2048.141470,14656.077652,-24278.754898,-78601.398095
2048.144042,-14804.118840,-9178.553681,-76915.987999
2048.146613,-13767.830521,-2072.576638,-69255.033019
2048.149184,62769.463882,-26499.372724,-88867.077768
2048.151755,-7254.018232,16136.489536,-68488.937521
2048.154326,10066.800811,-1184.329507,-77682.083497
2048.156897,6365.771101,3997.112087,-72472.634111
2048.159468,10362.883188,-148.041188,-73545.167808
2048.162040,-19541.436869,-13323.706956,-85189.819378
2048.164611,46632.974346,-4441.235652,-72166.195912
2048.167182,-11991.336260,-1628.453072,-77988.521696
2048.169753,13027.624579,1628.453072,-76456.330700
2048.172324,-1628.453072,-3849.070898,-77988.521696
2048.174895,-13915.871710,7698.141797,-69101.813920
2048.177467,296.082377,-20281.642811,-85496.257577
2048.180038,-4145.153275,5329.482782,-66803.527426
2048.182609,18505.148550,-20429.683999,-83504.409282
2048.185180,-22354.219448,15840.407159,-71093.662214
2048.187751,33309.267390,-18357.107362,-84883.381178
2048.190322,-28868.031738,12287.418637,-66343.870127
2048.192893,14508.036463,-13915.871710,-84270.504780
2048.195465,-7846.182985,6513.812290,-69408.252119
2048.198036,38046.585419,-23834.631332,-82125.437386
2048.200607,-4293.194464,5921.647536,-77682.083497
2048.203178,2072.576638,-7105.977043,-72472.634111
2048.205749,17320.819043,-3849.070898,-78907.836294
2048.208320,-29460.196492,-20577.725188,-80440.027290
2048.210891,40119.162056,3552.988522,-71553.319513
2048.213463,-67654.823099,22354.219448,-68029.280222
2048.216034,75501.006084,-4441.235652,-86262.353075
2048.218605,-61881.216751,38934.832549,-57303.943250
2048.221176,50037.921679,-51666.374752,-76915.987999
2048.223747,9770.718434,-15100.201217,-88407.420469
2048.226318,-30052.361245,-17172.777854,-69561.471218
2048.228919,9622.677246,5477.523971,-76149.892501
2048.231535,38342.667796,-1332.370696,-87488.105872
2048.234151,-53442.869012,30200.402434,-66803.527426
2048.236768,42191.738694,-15248.242405,-80440.027290
2048.239384,14804.118840,14211.954086,-73238.729609
2048.242000,-52554.621882,26499.372724,-68029.280222
2048.244616,33901.432144,-11251.130318,-83351.190182
2048.247232,18653.189738,10510.924376,-69408.252119
2048.249849,-30644.525999,8586.388927,-68029.280222
2048.252465,-888.247130,-8586.388927,-83197.971083
2048.255081,9326.594869,-10510.924376,-87181.667672
2048.257697,-38934.832549,9178.553681,-74617.701505
2048.260313,14952.160028,-24130.713709,-87028.448573
2048.262930,-26943.496289,15544.324782,-72779.072310
2048.265546,11991.336260,-24574.837274,-85036.600278
2048.268162,-11399.171507,17616.901420,-72779.072310
2048.270778,16432.571912,-11547.212695,-86109.133975
2048.273394,-25315.043216,19393.395680,-66497.089226
2048.276011,19689.478057,3552.988522,-70174.347617
2048.278627,-16876.695478,1480.411884,-80286.808190
2048.281243,10362.883188,3997.112087,-71859.757712
2048.283859,5181.441594,296.082377,-82125.437386
2048.286476,7550.100608,1480.411884,-73238.729609
2048.289092,-15544.324782,0.000000,-81206.122788
2048.291708,20873.807564,9918.759623,-70021.128517
2048.294324,-37158.338288,3404.947333,-77375.645298
2048.296940,17764.942608,-1924.535449,-77988.521696
2048.299557,-15692.365970,-1332.370696,-77835.302597
2048.302173,-14508.036463,30792.567187,-65577.774629
2048.304789,-7846.182985,-12583.501014,-85802.695776
2048.307405,14211.954086,-11251.130318,-67569.622924
2048.310021,-30940.608376,1924.535449,-81512.560987
2048.312638,-6217.729913,-31532.773129,-75230.577904
2048.315254,113547.591503,-18505.148550,-79061.055394
2048.317870,-110438.726546,40563.285622,-49030.111872
2048.320486,109994.602981,-16284.530724,-94689.403553
2048.323102,-66026.370026,51222.251186,-94076.527154
2048.325719,-15544.324782,-17172.777854,-100664.948437
2048.328335,50482.045244,-14211.954086,-80440.027290
2048.330951,9918.759623,-5477.523971,-74770.920605
2048.333596,-40563.285622,-740.205942,-73085.510509
2048.336241,35381.844028,-26351.331535,-83810.847481
2048.338885,21762.054695,-5329.482782,-78294.959896
2048.341530,-53590.910201,10066.800811,-71400.100414
2048.344175,27831.743419,-27239.578666,-91012.145162
2048.346820,-32272.979071,18061.024985,-69561.471218
2048.349464,1776.494261,-23686.590144,-89633.173266
2048.352109,5625.565159,-2220.617826,-75996.673402
2048.354754,43968.232955,-11251.130318,-79673.931792
2048.357399,-25611.125593,3849.070898,-70940.443115
2048.360043,31384.731941,-5773.606348,-79980.369991
2048.362688,-19541.436869,-11103.089130,-81206.122788
2048.365333,-8142.265362,-3997.112087,-72932.291410
2048.367978,8586.388927,-9030.512492,-73698.386908
2048.370622,-592.164754,-592.164754,-78907.836294
2048.373267,-4737.318029,-11399.171507,-80899.684589
2048.375912,-13619.789333,3256.906145,-74617.701505
2048.378557,8142.265362,-23390.507767,-85955.914876
2048.381201,-23834.631332,11695.253884,-66650.308326
2048.383846,21021.848753,-20429.683999,-83964.066581
2048.386491,-6661.853478,148.041188,-73545.167808
2048.389136,28571.949361,-10066.800811,-78907.836294
2048.391781,-40267.203245,5625.565159,-67416.403824
2048.394425,41155.450375,-2960.823768,-79520.712692
2048.397070,-27979.784608,-6661.853478,-74464.482406
2048.399715,54331.116143,-5181.441594,-77682.083497
2048.402360,-49001.633360,23538.548956,-72932.291410
2048.405004,75945.129649,-12879.583391,-87488.105872
2048.407649,-42931.944636,46632.974346,-83657.628382
2048.410294,-47965.345042,-19541.436869,-83657.628382
2048.412939,88380.589475,-36566.173535,-72319.415011
2048.415583,-147152.941270,36122.049970,-33861.421012
2048.418228,61141.010809,-27535.661042,-82891.532884
2048.420873,-18505.148550,21910.095883,-80133.589091
2048.423518,-25018.960840,8882.471304,-79673.931792
2048.426162,148.041188,-2516.700203,-66650.308326
2048.428807,45004.521274,-7994.224174,-80440.027290
2048.431452,-82903.065504,39526.997303,-59908.667944
2048.434097,51370.292375,-23538.548956,-80593.246390
2048.436741,7994.224174,7994.224174,-75077.358804
2048.439311,-14359.995275,-5033.400406,-84883.381178
2048.441880,-5921.647536,-3256.906145,-88560.639569
2048.444449,-5773.606348,3256.906145,-82738.313784
2048.447019,-17912.983796,-3701.029710,-76915.987999
2048.449588,-2516.700203,-2516.700203,-73851.606007
2048.452157,6957.935855,-15840.407159,-85955.914876
2048.454726,-17912.983796,10807.006753,-74311.263306
2048.457296,9770.718434,-17468.860231,-82738.313784
2048.459865,-18505.148550,12287.418637,-71246.881314
2048.462434,-1036.288319,-12139.377449,-83964.066581
2048.465004,-33309.267390,16136.489536,-71093.662214
2048.467573,35085.761651,-6217.729913,-78907.836294
2048.470142,-8586.388927,3849.070898,-73545.167808
2048.472711,21910.095883,-13027.624579,-81512.560987
2048.475281,-21910.095883,9770.718434,-81972.218286
2048.477850,17024.736666,-10510.924376,-83197.971083
2048.480419,-5181.441594,148.041188,-85189.819378
2048.482989,10214.842000,8586.388927,-68642.156621
2048.485558,-12731.542202,6661.853478,-80593.246390
2048.488127,31976.896694,13619.789333,-67416.403824
2048.490696,-45300.603650,10658.965565,-79673.931792
2048.493266,-34345.555709,-18801.230927,-77528.864398
2048.495835,87344.301156,-18801.230927,-69255.033019
2048.498404,-136790.058082,25315.043216,-59142.572446
2048.500974,134125.316690,-43672.150578,-113075.695505
2048.503543,-95486.566518,72244.099939,-69101.813920
2048.506112,11399.171507,-45744.727216,-103576.111330
2048.508681,83939.353823,-35677.926404,-74158.044206
2048.511251,-86308.012837,13767.830521,-72166.195912
2048.513820,39675.038491,-6365.771101,-60827.982541
2048.516389,57736.063476,-11547.212695,-83044.751983
2048.518959,6957.935855,11103.089130,-63279.488135
2048.521528,-10362.883188,-11399.171507,-73085.510509
2048.524097,37602.461854,-6809.894666,-81818.999186
2048.526666,-24278.754898,6365.771101,-69255.033019
2048.529236,-17320.819043,-10066.800811,-77375.645298
2048.531805,3552.988522,-2368.659014,-83810.847481
2048.534374,-11399.171507,-3701.029710,-76609.549800
2048.536944,5033.400406,-8142.265362,-79061.055394
2048.539513,16580.613101,-19097.313304,-84730.162079
2048.542117,-28127.825796,16728.654289,-66803.527426
2048.544721,18357.107362,-16876.695478,-81052.903688
2048.547326,-4737.318029,2812.782580,-71093.662214
2048.549930,19985.560434,-9178.553681,-78448.178995
2048.552535,-2516.700203,-6069.688724,-78448.178995
2048.555139,39230.914926,-6809.894666,-75230.577904
2048.557743,-13471.748144,2368.659014,-79520.712692
2048.560348,18505.148550,-5033.400406,-70787.224015
2048.562952,-5477.523971,-1184.329507,-79214.274493
2048.565556,5033.400406,-5477.523971,-77988.521696
2048.568161,-7846.182985,-19689.478057,-81359.341888
2048.570765,11695.253884,-7698.141797,-79673.931792
2048.573369,-2516.700203,-15544.324782,-86568.791274
2048.575974,-11695.253884,4145.153275,-69714.690318
2048.578578,6809.894666,-23094.425390,-85343.038477
2048.581182,888.247130,6661.853478,-71093.662214
2048.583787,740.205942,4885.359217,-81972.218286
2048.586391,-21614.013506,-6365.771101,-68488.937521
2048.588995,88824.713040,-4885.359217,-83504.409282
2048.591600,-148337.270777,29904.320057,-70480.785816
2048.594204,99779.760982,-51518.333563,-72625.853210
2048.596808,-34345.555709,41895.656317,-91012.145162
2048.599413,-59512.557737,36862.255912,-62819.830836
2048.602017,63953.793389,-23242.466579,-84883.381178
2048.604621,-34345.555709,18949.272115,-69561.471218
2048.607226,-26943.496289,-10066.800811,-84883.381178
2048.609830,33013.185013,-19689.478057,-82431.875585
2048.612434,-40267.203245,22946.384202,-65577.774629
2048.615039,-10066.800811,-7254.018232,-77069.207099
2048.617643,36862.255912,-15840.407159,-83351.190182
2048.620247,-26055.249158,28719.990550,-56078.190454
2048.622852,-6661.853478,-12731.542202,-90858.926063
2048.625456,16876.695478,-296.082377,-71706.538613
2048.628060,16284.530724,-15396.283594,-82891.532884
2048.630665,-35825.967593,9326.594869,-75537.016103
2048.633269,28571.949361,-9326.594869,-75077.358804
2048.635873,7550.100608,-8290.306550,-79980.369991
2048.638478,18209.066173,7698.141797,-70327.566716
2048.641082,-13027.624579,740.205942,-83351.190182
2048.643686,2220.617826,10807.006753,-69101.813920
2048.646312,-7550.100608,-7994.224174,-82585.094684
2048.648938,-12583.501014,1776.494261,-72932.291410
2048.651563,7402.059420,-11695.253884,-79214.274493
2048.654189,-6957.935855,21614.013506,-72319.415011
2048.656815,-10510.924376,-14211.954086,-82125.437386
2048.659441,-10362.883188,7402.059420,-71246.881314
2048.662066,14952.160028,-21762.054695,-88407.420469
2048.664692,-49741.839302,23094.425390,-66803.527426
2048.667318,43820.191766,-26795.455100,-91318.583362
2048.669943,51370.292375,-2960.823768,-81359.341888
2048.672569,-66470.493592,10510.924376,-62819.830836
2048.675195,68839.152606,-23242.466579,-100511.729338
2048.677821,-23686.590144,45892.768404,-60215.106143
2048.680446,-23390.507767,-14952.160028,-70480.785816
2048.683072,108366.149909,-16876.695478,-75383.797003
2048.685698,-102000.378808,29904.320057,-56537.847752
2048.688323,42931.944636,-21021.848753,-93310.431656
2048.690949,-6809.894666,-1924.535449,-91012.145162
2048.693575,-69579.358548,13915.871710,-80286.808190
2048.696201,21317.931130,-44560.397708,-91318.583362
2048.698826,11695.253884,-5033.400406,-79214.274493
2048.701452,-27239.578666,2516.700203,-82891.532884
2048.704078,27831.743419,-444.123565,-75230.577904
2048.706704,41155.450375,-5773.606348,-79214.274493
2048.709329,-49149.674549,18505.148550,-70480.785816
2048.711955,33161.226202,-10066.800811,-81052.903688
2048.714581,592.164754,-1924.535449,-70787.224015
2048.717206,11103.089130,-6069.688724,-75077.358804
2048.719832,-1628.453072,-7698.141797,-85955.914876
2048.722458,17468.860231,-1184.329507,-73085.510509
2048.725084,-7402.059420,-6809.894666,-79980.369991
2048.727709,-14804.118840,-3552.988522,-77375.645298
2048.730335,11103.089130,-19393.395680,-76915.987999
2048.732961,-19985.560434,4441.235652,-73851.606007
2048.735587,9030.512492,-23538.548956,-84730.162079
2048.738212,-5181.441594,8438.347739,-69867.909418
2048.740838,17320.819043,-13619.789333,-83197.971083
2048.743464,-10807.006753,4589.276840,-69867.909418
2048.746089,12879.583391,-9622.677246,-81665.780087
2048.748715,-34197.514520,8586.388927,-67722.842023
2048.751354,36566.173535,-4885.359217,-81206.122788
2048.753993,2960.823768,-8142.265362,-74617.701505
2048.756632,26795.455100,11991.336260,-68488.937521
2048.759271,-29904.320057,-444.123565,-79367.493593
2048.761910,44856.480085,7846.182985,-78754.617194
2048.764549,-87196.259968,7846.182985,-77069.207099
2048.767188,71651.935186,-35233.802839,-95761.937250
2048.769828,-55071.322085,30940.608376,-70174.347617
2048.772467,-179425.920341,39230.914926,-74464.482406
2048.775106,124798.721821,-25463.084405,-106334.055122
2048.777745,-27387.619854,24426.796086,-88867.077768
2048.780384,-30644.525999,15544.324782,-74924.139704
2048.783023,35233.802839,-23686.590144,-78754.617194
2048.785662,5625.565159,20133.601622,-57150.724151
2048.788301,-41599.573940,4293.194464,-83810.847481
2048.790940,45300.603650,-10066.800811,-78448.178995
2048.793579,-15396.283594,3849.070898,-80286.808190
2048.796218,-12583.501014,-4589.276840,-73238.729609
2048.798857,10955.047942,-5033.400406,-77988.521696
2048.801496,-29164.114115,16580.613101,-71553.319513
2048.804135,3552.988522,-19097.313304,-87641.324971
2048.806774,-3552.988522,13767.830521,-70327.566716
2048.809413,28868.031738,-18061.024985,-86722.010374
2048.812052,-42043.697506,22058.137072,-66037.431928
2048.814691,26055.249158,-14804.118840,-86415.572174
2048.817331,-20725.766376,16136.489536,-69867.909418
2048.819970,14952.160028,-6809.894666,-80746.465489
2048.822609,-148.041188,592.164754,-77835.302597
2048.825248,24574.837274,-4589.276840,-77375.645298
2048.827887,-17172.777854,11547.212695,-77528.864398
2048.830526,-11251.130318,-5329.482782,-78907.836294
2048.833165,7105.977043,-3701.029710,-83044.751983
2048.835804,-14952.160028,5181.441594,-68795.375720
2048.838443,-4885.359217,-2812.782580,-79214.274493
2048.841082,14063.912898,6809.894666,-73698.386908
2048.843721,-26795.455100,1924.535449,-74158.044206
2048.846360,-10066.800811,-13767.830521,-79980.369991
2048.848999,21169.889941,-7254.018232,-91778.240660
2048.851638,-98743.472663,5329.482782,-81359.341888
2048.854277,104072.955445,-48261.427418,-100664.948437
2048.856925,-35381.844028,44264.315332,-88560.639569
2048.859572,-76093.170838,-17172.777854,-124107.470676
2048.862219,110882.850112,-36714.214723,-71553.319513
2048.864867,-32865.143825,5625.565159,-49796.207370
2048.867514,-1036.288319,-2812.782580,-79214.274493
2048.870162,34493.596897,6809.894666,-75690.235202
2048.872809,-40859.367998,6809.894666,-75230.577904
2048.875456,43228.027013,-31532.773129,-86722.010374
2048.878104,58180.187041,-22650.301825,-81052.903688
2048.880751,-57736.063476,19245.354492,-66497.089226
2048.883398,11695.253884,-33753.390955,-87794.544071
2048.886046,444.123565,7994.224174,-74770.920605
2048.888693,2664.741391,-6661.853478,-82891.532884
2048.891341,-13915.871710,9918.759623,-67416.403824
2048.893988,40563.285622,-27535.661042,-89633.173266
2048.896635,-21762.054695,17468.860231,-70940.443115
2048.899283,23094.425390,-10955.047942,-80286.808190
2048.901930,-18949.272115,2072.576638,-66343.870127
2048.904578,23982.672521,-8882.471304,-77835.302597
2048.907225,148.041188,-8438.347739,-77988.521696
2048.909872,11251.130318,-3256.906145,-75537.016103
2048.912520,-5181.441594,-3108.864956,-83504.409282
2048.915167,5033.400406,-148.041188,-71400.100414
2048.917814,-25759.166782,-14063.912898,-80286.808190
2048.920462,10955.047942,-11103.089130,-82738.313784
2048.923109,-5033.400406,-15248.242405,-82891.532884
2048.925757,-5181.441594,1776.494261,-72319.415011
2048.928404,9178.553681,-28868.031738,-88713.858668
2048.931051,14508.036463,-3256.906145,-73391.948708
2048.933699,1036.288319,14063.912898,-70480.785816
2048.936346,-39082.873738,-18209.066173,-81818.999186
2048.938993,96078.731272,-9918.759623,-68642.156621
2048.941645,-116360.374082,26795.455100,-58376.476948
2048.944296,116064.291706,-33901.432144,-104801.864126
2048.946948,-60844.928432,52554.621882,-86568.791274
2048.949599,7550.100608,7846.182985,-88560.639569
2048.952250,22798.343014,-1776.494261,-91471.802461
2048.954902,-39823.079680,21021.848753,-68182.499322
2048.957553,-30348.443622,-20281.642811,-82738.313784
2048.960205,31088.649564,-11843.295072,-74311.263306
2048.962856,3997.112087,1480.411884,-72472.634111
2048.965507,-50037.921679,22798.343014,-68335.718422
2048.968159,44856.480085,-25463.084405,-87794.544071
2048.970810,-43524.109390,21317.931130,-60061.887043
2048.973462,20577.725188,-21910.095883,-91165.364262
2048.976113,-11547.212695,17912.983796,-66803.527426
2048.978764,27239.578666,-18949.272115,-89326.735067
2048.981416,-22946.384202,14211.954086,-67876.061123
2048.984067,4589.276840,3997.112087,-73085.510509
2048.986718,-6661.853478,-3997.112087,-84270.504780
2048.989370,-1332.370696,3108.864956,-71400.100414
2048.992021,3256.906145,444.123565,-81665.780087
2048.994673,-2368.659014,2812.782580,-77069.207099
2048.997324,-11843.295072,-2220.617826,-79827.150892
2048.999975,-3701.029710,6217.729913,-73545.167808
2049.002627,-12583.501014,-9178.553681,-80593.246390
2049.005278,-15100.201217,1628.453072,-74770.920605
2049.007930,39230.914926,-18653.189738,-87794.544071
2049.010581,-45300.603650,22354.219448,-71246.881314
2049.013232,52850.704259,-34493.596897,-90092.830565
2049.015884,-4441.235652,18653.189738,-80593.246390
2049.018535,-37898.544230,-8438.347739,-84883.381178
2049.021186,75352.964896,888.247130,-57610.381450
2049.023838,-70023.482113,22502.260637,-48876.892772
2049.026489,68098.946664,-40267.203245,-100511.729338
2049.029141,18061.024985,30792.567187,-87181.667672
2049.031792,-113695.632691,9918.759623,-108785.560716
2049.034443,8734.430116,-23242.466579,-83504.409282
2049.037095,2368.659014,-12287.418637,-91471.802461
2049.039746,-80090.282924,17616.901420,-74004.825107
2049.042398,78017.706287,-27683.702231,-84576.942979
2049.045049,-13767.830521,28275.866984,-59602.229744
2049.047700,-29312.155303,-13767.830521,-86875.229473
2049.050351,42783.903448,4737.318029,-66190.651027
2049.053002,-8290.306550,-14063.912898,-82125.437386
2049.055653,-36122.049970,12879.583391,-72932.291410
2049.058304,45448.644839,-19689.478057,-88560.639569
2049.060955,-2812.782580,-4737.318029,-77222.426198
2049.063606,14211.954086,-1480.411884,-76609.549800
2049.066258,-6217.729913,-4589.276840,-83810.847481
2049.068909,8586.388927,1924.535449,-70940.443115
2049.071560,-13027.624579,-3404.947333,-77375.645298
2049.074211,5773.606348,-3997.112087,-76915.987999
2049.076862,-296.082377,-13471.748144,-77988.521696
2049.079513,592.164754,-5477.523971,-75230.577904
2049.082164,5477.523971,-10955.047942,-83657.628382
2049.084815,-4589.276840,-4293.194464,-75383.797003
2049.087466,16876.695478,-7846.182985,-80593.246390
2049.090117,-26943.496289,5033.400406,-70021.128517
2049.092768,34049.473332,-23094.425390,-83197.971083
2049.095419,1332.370696,-2664.741391,-73085.510509
2049.098071,12139.377449,-11103.089130,-84576.942979
2049.100722,27831.743419,-5625.565159,-79827.150892
2049.103373,-3404.947333,22798.343014,-64811.679131
2049.106024,-25611.125593,-22206.178260,-80133.589091
2049.108675,76833.376780,-6069.688724,-65577.774629
2049.111326,-45744.727216,15100.201217,-48264.016374
2049.113977,17468.860231,-42783.903448,-70634.004916
2049.116628,60104.722490,-9918.759623,-82585.094684
2049.119279,-138270.469966,47077.097911,-60981.201641
2049.121930,85419.765707,-20429.683999,-79061.055394
2049.124581,-30348.443622,12879.583391,-70634.004916
2049.127232,-22650.301825,-18357.107362,-82738.313784
2049.129883,26795.455100,5181.441594,-60674.763442
2049.132535,11991.336260,-5033.400406,-77222.426198
2049.135186,-44412.356520,20873.807564,-68948.594820
2049.137837,26351.331535,-1184.329507,-75690.235202
2049.140488,-11547.212695,5033.400406,-75383.797003
2049.143139,888.247130,3849.070898,-67263.184724
2049.145790,5773.606348,-9178.553681,-89479.954166
2049.148441,10658.965565,11843.295072,-66956.746525
2049.151092,-19245.354492,-5921.647536,-83504.409282
2049.153741,2072.576638,2072.576638,-76303.111601
2049.156390,-15692.365970,-888.247130,-79673.931792
2049.159039,-8586.388927,-1332.370696,-75230.577904
2049.161688,7550.100608,-3701.029710,-82125.437386
2049.164337,-39675.038491,19393.395680,-67416.403824
2049.166986,39526.997303,-15100.201217,-85496.257577
2049.169635,-36122.049970,17320.819043,-66497.089226
2049.172284,24870.919651,-16284.530724,-88560.639569
2049.174933,-13471.748144,8586.388927,-66803.527426
2049.177582,888.247130,-444.123565,-83810.847481
2049.180230,8438.347739,-2960.823768,-81512.560987
2049.182879,18061.024985,8142.265362,-70480.785816
2049.185528,-23982.672521,-19097.313304,-84576.942979
2049.188177,77869.665098,148.041188,-68182.499322
2049.190826,-54035.033766,16728.654289,-61747.297139
2049.193475,-7254.018232,-37898.544230,-85343.038477
2049.196124,81422.653620,-15692.365970,-86875.229473
2049.198773,-121245.733300,18505.148550,-69561.471218
2049.201422,99335.637416,-40415.244433,-90246.049664
2049.204071,-42931.944636,33013.185013,-65577.774629
2049.206720,-30940.608376,-23538.548956,-96374.813648
2049.209369,39823.079680,2220.617826,-68488.937521
2049.212018,41599.573940,-444.123565,-68948.594820
2049.214667,-43376.068201,10807.006753,-65424.555529
2049.217316,14508.036463,-2812.782580,-72625.853210
2049.219965,3997.112087,-2664.741391,-81206.122788
2049.222614,-29608.237680,-7402.059420,-81818.999186
2049.225263,11843.295072,-15248.242405,-76915.987999
2049.227912,-12139.377449,3849.070898,-74617.701505
2049.230560,3997.112087,-19097.313304,-82125.437386
2049.233209,-2220.617826,4885.359217,-73545.167808
2049.235858,18357.107362,-28127.825796,-89633.173266
2049.238507,-24426.796086,13027.624579,-63739.145434
2049.241156,17024.736666,-14508.036463,-82585.094684
2049.243805,-8290.306550,-1480.411884,-73238.729609
2049.246454,27979.784608,-8438.347739,-78294.959896
2049.249103,-888.247130,-7402.059420,-79367.493593
2049.251752,32124.937883,2368.659014,-73085.510509
2049.254401,-20725.766376,5773.606348,-73698.386908
2049.257050,6957.935855,-6365.771101,-79214.274493
2049.259632,3404.947333,-4589.276840,-79367.493593
2049.262215,-15988.448347,-11547.212695,-74617.701505
2049.264799,32717.102636,-4441.235652,-85189.819378
2049.267382,-12731.542202,34345.555709,-69101.813920
2049.269965,-72836.264693,-27091.537477,-109398.437114
2049.272549,68098.946664,-4441.235652,-74770.920605
2049.275132,-67950.905476,15692.365970,-66037.431928
2049.277715,44116.274143,-19689.478057,-68182.499322
2049.280299,26055.249158,20281.642811,-82738.313784
2049.282882,-93265.948692,41599.573940,-67569.622924
2049.285465,98299.349098,-26351.331535,-76609.549800
2049.288049,-27387.619854,13619.789333,-68642.156621
2049.290632,-1036.288319,-13175.665768,-85649.476676
2049.293215,7550.100608,-5625.565159,-79367.493593
2049.295799,-148.041188,5181.441594,-79367.493593
2049.298382,-19097.313304,8142.265362,-75996.673402
2049.300965,19837.519246,-9178.553681,-79061.055394
2049.303549,-6069.688724,-444.123565,-78754.617194
2049.306132,-32865.143825,3849.070898,-75077.358804
2049.308715,21169.889941,-24722.878463,-85189.819378
2049.311299,-31828.855506,17024.736666,-69867.909418
2049.313882,11103.089130,-21169.889941,-87488.105872
2049.316465,-16432.571912,18653.189738,-61747.297139
2049.319049,22650.301825,-5921.647536,-81512.560987
2049.321632,-21169.889941,11695.253884,-75077.358804
2049.324215,15100.201217,888.247130,-76149.892501
2049.326799,-8290.306550,11103.089130,-77835.302597
2049.329382,1184.329507,-3256.906145,-77222.426198
2049.331965,10066.800811,-7402.059420,-83197.971083
2049.334549,18949.272115,6661.853478,-69408.252119
2049.337132,-28423.908173,1924.535449,-81665.780087
2049.339715,30940.608376,13323.706956,-66956.746525
2049.342299,-7254.018232,5033.400406,-80286.808190
2049.344882,-40119.162056,-7402.059420,-75537.016103
2049.347465,80830.488866,-13767.830521,-75537.016103
2049.350049,-104517.079010,22502.260637,-51788.055665
2049.352632,126723.257270,-46188.850781,-106334.055122
2049.355215,-110882.850112,65730.287650,-76149.892501
2049.357799,41747.615129,-51074.209998,-111390.285409
2049.360382,29312.155303,-4441.235652,-78294.959896
2049.362976,-67802.864287,3108.864956,-94536.184453
2049.365571,45004.521274,-5329.482782,-64505.240932
2049.368165,62325.340316,-5773.606348,-80286.808190
2049.370760,-16876.695478,9474.636058,-60215.106143
2049.373354,-3849.070898,-24130.713709,-88713.858668
2049.375949,8438.347739,-13471.748144,-85496.257577
2049.378543,-27387.619854,-592.164754,-70787.224015
2049.381137,20725.766376,-18505.148550,-85189.819378
2049.383732,-6957.935855,12879.583391,-72472.634111
2049.386326,-2960.823768,-18209.066173,-79827.150892
2049.388921,148.041188,5033.400406,-70021.128517
2049.391515,3552.988522,-19541.436869,-84576.942979
2049.394109,-18505.148550,6069.688724,-70634.004916
2049.396704,32717.102636,-16728.654289,-78448.178995
2049.399298,-296.082377,148.041188,-74311.263306
2049.401893,27535.661042,-9474.636058,-77988.521696
2049.404487,-7105.977043,-3552.988522,-78141.740796
2049.407081,22650.301825,-12287.418637,-75996.673402
2049.409676,-5329.482782,2220.617826,-76149.892501
2049.412270,4441.235652,3997.112087,-68182.499322
2049.414865,-2812.782580,-2812.782580,-83504.409282
2049.417459,32717.102636,-9030.512492,-75077.358804
2049.420053,8882.471304,1628.453072,-73391.948708
2049.422648,-52554.621882,2516.700203,-75537.016103
2049.425242,72392.141128,-16284.530724,-82738.313784
2049.427837,-104072.955445,27387.619854,-52400.932063
2049.430431,109106.355851,-64990.081708,-98826.319242
2049.433025,-64101.834577,66026.370026,-68029.280222
2049.435620,-49593.798114,-22798.343014,-97600.566445
2049.438214,75797.088461,-20133.601622,-62206.954438
2049.440809,-58180.187041,15840.407159,-68642.156621
2049.443403,-296.082377,8438.347739,-76456.330700
2049.445997,28719.990550,888.247130,-80133.589091
2049.448592,-1480.411884,-1776.494261,-79980.369991
2049.451186,-5181.441594,444.123565,-71400.100414
2049.453781,9474.636058,-4441.235652,-87334.886772
2049.456375,-23982.672521,14359.995275,-70174.347617
2049.458970,-7105.977043,-6513.812290,-76149.892501
2049.461564,-1036.288319,1184.329507,-76915.987999
2049.464158,-8438.347739,-6513.812290,-82431.875585
2049.466759,-13915.871710,1924.535449,-76609.549800
2049.469360,31384.731941,-10955.047942,-84576.942979
2049.471960,-22650.301825,12583.501014,-71706.538613
2049.474561,11991.336260,-8142.265362,-78907.836294
2049.477162,-17912.983796,6957.935855,-75230.577904
2049.479762,22058.137072,148.041188,-77988.521696
2049.482363,-1480.411884,10214.842000,-73851.606007
2049.484963,17468.860231,-5181.441594,-76609.549800
2049.487564,-8142.265362,-6513.812290,-84423.723880
2049.490165,21762.054695,4589.276840,-66803.527426
2049.492765,-35381.844028,3256.906145,-80746.465489
2049.495366,-1924.535449,-3256.906145,-79827.150892
2049.497967,-1924.535449,5625.565159,-76915.987999
2049.500567,-23094.425390,-9770.718434,-77528.864398
2049.503168,59512.557737,-11251.130318,-79980.369991
2049.505769,-102592.543561,13471.748144,-60981.201641
2049.508369,110290.685358,-37602.461854,-100205.291138
2049.510970,-107922.026344,57884.104664,-58376.476948
2049.513570,81422.653620,-62769.463882,-94995.841752
2049.516171,9326.594869,10214.842000,-89173.515967
2049.518772,-70763.688055,6661.853478,-100971.386636
2049.521372,-39675.038491,-7402.059420,-88407.420469
2049.523973,41007.409187,1036.288319,-77528.864398
2049.526574,-49593.798114,4145.153275,-77682.083497
2049.529174,40119.162056,-29016.072926,-87334.886772
2049.531775,-1332.370696,-4441.235652,-84576.942979
2049.534376,-10510.924376,2368.659014,-74617.701505
2049.536976,19689.478057,-11399.171507,-88867.077768
2049.539577,-15248.242405,10066.800811,-67876.061123
2049.542177,-9474.636058,-18653.189738,-80746.465489
2049.544778,1776.494261,1776.494261,-70327.566716
2049.547379,34937.720462,-21021.848753,-83810.847481
2049.549979,-13915.871710,10658.965565,-72166.195912
2049.552580,38638.750172,-21762.054695,-85649.476676
2049.555181,-13175.665768,3404.947333,-67722.842023
2049.557781,18801.230927,-15840.407159,-81206.122788
2049.560382,-2960.823768,-7402.059420,-76149.892501
2049.562983,26647.413912,3701.029710,-70174.347617
2049.565583,-14804.118840,1036.288319,-75843.454302
2049.568184,32421.020260,-11103.089130,-79980.369991
2049.570789,1184.329507,-2220.617826,-79367.493593
2049.573394,-35233.802839,4589.276840,-72625.853210
2049.575998,33309.267390,-25611.125593,-85343.038477
2049.578603,-33605.349767,30644.525999,-77375.645298
2049.581208,-67654.823099,-30792.567187,-101124.605736
2049.583813,79350.076982,-7550.100608,-67263.184724
2049.586418,-75204.923707,8142.265362,-63739.145434
2049.589023,57588.022288,-11695.253884,-74770.920605
2049.591627,-12139.377449,22354.219448,-90552.487864
2049.594232,-67654.823099,27239.578666,-68795.375720
2049.596837,81866.777185,-10658.965565,-90092.830565
2049.599442,18209.066173,296.082377,-86875.229473
2049.602047,-13471.748144,13323.706956,-66956.746525
2049.604652,2220.617826,-8734.430116,-83044.751983
2049.607257,7994.224174,14952.160028,-75690.235202
2049.609861,-38046.585419,11991.336260,-75230.577904
2049.612466,12731.542202,-10214.842000,-79367.493593
2049.615071,-740.205942,1480.411884,-79980.369991
2049.617676,-8586.388927,6957.935855,-68948.594820
2049.620281,7254.018232,-18061.024985,-86875.229473
2049.622886,-16284.530724,12731.542202,-74311.263306
2049.625491,14804.118840,-14952.160028,-85036.600278
2049.628095,-34789.679274,17468.860231,-66037.431928
2049.630700,23390.507767,-9918.759623,-85189.819378
2049.633305,-4737.318029,11103.089130,-81972.218286
2049.635910,8290.306550,-1184.329507,-72779.072310
2049.638515,2664.741391,-10066.800811,-87794.544071
2049.641120,0.000000,11399.171507,-67263.184724
2049.643724,-28868.031738,-6365.771101,-81665.780087
2049.646329,9622.677246,8734.430116,-78294.959896
2049.648934,-14952.160028,-2220.617826,-81206.122788
2049.651539,24870.919651,11991.336260,-68488.937521
2049.654144,-22798.343014,-6513.812290,-87641.324971
2049.656749,4589.276840,-37454.420665,-85189.819378
2049.659354,55811.528027,-1036.288319,-82585.094684
2049.661958,-110882.850112,35529.885216,-65577.774629
2049.664563,137234.181647,-16876.695478,-82125.437386
2049.667168,-45448.644839,33013.185013,-33095.325514
2049.669773,32717.102636,-38046.585419,-87641.324971
2049.672378,29164.114115,-11695.253884,-80133.589091
2049.674985,-34937.720462,2960.823768,-72012.976812
2049.677593,-1924.535449,-20133.601622,-86109.133975
2049.680200,33605.349767,-1776.494261,-74770.920605
2049.682807,-17764.942608,7994.224174,-66037.431928
2049.685415,-1776.494261,-5181.441594,-72779.072310
2049.688022,14063.912898,-12139.377449,-84883.381178
2049.690629,-35529.885216,6365.771101,-75843.454302
2049.693237,10510.924376,-23982.672521,-79827.150892
2049.695844,-9622.677246,13767.830521,-72472.634111
2049.698451,-2072.576638,-17320.819043,-86415.572174
2049.701059,2368.659014,4589.276840,-72012.976812
2049.703666,45004.521274,-15544.324782,-78907.836294
2049.706273,-15840.407159,-1628.453072,-74464.482406
2049.708881,26351.331535,-9918.759623,-70787.224015
2049.711488,-18061.024985,-7254.018232,-76762.768900
2049.714095,28127.825796,-4737.318029,-79061.055394
2049.716703,-4589.276840,4145.153275,-75537.016103
2049.719310,17616.901420,-2072.576638,-75843.454302
2049.721917,15544.324782,-6365.771101,-78294.959896
2049.724525,-12879.583391,6957.935855,-69561.471218
2049.727132,8586.388927,-16876.695478,-83504.409282
2049.729739,35381.844028,5329.482782,-72472.634111
2049.732347,-44856.480085,-12879.583391,-77682.083497
2049.734954,43672.150578,-18357.107362,-78601.398095
2049.737561,-11843.295072,14656.077652,-90552.487864
2049.740169,-84383.477388,10955.047942,-69561.471218
2049.742776,112807.385561,-33753.390955,-66956.746525
2049.745383,-105701.408518,45596.686027,-45659.291681
2049.747991,46188.850781,-18061.024985,-90705.706963
2049.750598,13767.830521,3701.029710,-76303.111601
2049.753205,-10807.006753,2368.659014,-61594.078039
2049.755813,-32124.937883,-10510.924376,-82891.532884
2049.758420,25018.960840,-2220.617826,-78294.959896
2049.761027,-28127.825796,11547.212695,-73238.729609
2049.763635,-10658.965565,-5329.482782,-78294.959896
2049.766242,6513.812290,-12435.459826,-81052.903688
2049.768849,-8290.306550,5329.482782,-74311.263306
2049.771457,4293.194464,-15396.283594,-84117.285680
2049.774064,-21317.931130,5921.647536,-72319.415011
2049.776671,9474.636058,-16432.571912,-82431.875585
2049.779227,-24574.837274,14656.077652,-70021.128517
2049.781783,14063.912898,1332.370696,-79061.055394
2049.784338,-4589.276840,1184.329507,-78907.836294
2049.786894,36418.132346,-6661.853478,-81359.341888
2049.789449,-20873.807564,6661.853478,-75383.797003
2049.792005,15692.365970,-9474.636058,-76303.111601
2049.794561,-23538.548956,5921.647536,-83351.190182
2049.797116,19985.560434,-5921.647536,-78754.617194
2049.799672,-740.205942,9178.553681,-83197.971083
2049.802227,-7550.100608,-6957.935855,-77682.083497
2049.804783,66174.411215,-20281.642811,-80746.465489
2049.807339,-69727.399736,36418.132346,-55924.971354
2049.809894,38194.626607,-60696.887244,-91931.459760
2049.812450,13471.748144,19541.436869,-82431.875585
2049.815005,-96522.854837,-9622.677246,-96374.813648
2049.817561,89712.960170,-29460.196492,-69101.813920
2049.820117,24130.713709,-14508.036463,-68182.499322
2049.822672,-58032.145853,20281.642811,-68182.499322
2049.825228,50778.127621,-19837.519246,-80440.027290
2049.827783,-43079.985824,5625.565159,-64964.898230
2049.830339,3849.070898,-14063.912898,-81818.999186
2049.832895,22206.178260,-5625.565159,-78448.178995
2049.835450,12435.459826,2664.741391,-75230.577904
2049.838006,-22798.343014,-2960.823768,-85036.600278
2049.840561,11251.130318,6217.729913,-73545.167808
2049.843117,-10807.006753,-6365.771101,-79827.150892
2049.845673,-2960.823768,444.123565,-71400.100414
2049.848228,13915.871710,-11991.336260,-80593.246390
2049.850784,-4293.194464,2664.741391,-75996.673402
2049.853339,4293.194464,-17024.736666,-84730.162079
2049.855895,-11695.253884,7254.018232,-64198.802732
2049.858451,13619.789333,-11991.336260,-83044.751983
2049.861006,-26795.455100,4145.153275,-70940.443115
2049.863562,39526.997303,-22502.260637,-84270.504780
2049.866117,-8438.347739,12287.418637,-71859.757712
2049.868673,30644.525999,-20281.642811,-78907.836294
2049.871228,14952.160028,12879.583391,-70021.128517
2049.873784,-34641.638086,740.205942,-75230.577904
2049.876340,57736.063476,-8142.265362,-85955.914876
2049.878895,-43079.985824,18653.189738,-78907.836294
2049.881463,-11843.295072,-20281.642811,-89020.296868
2049.884030,51074.209998,-19837.519246,-92237.897959
2049.886597,-95190.484141,5181.441594,-76915.987999
2049.889165,30644.525999,-2812.782580,-92391.117059
2049.891732,-740.205942,-8438.347739,-99745.633840
2049.894300,-68987.193794,25759.166782,-72625.853210
2049.896867,47373.180288,-24722.878463,-85036.600278
2049.899434,-23094.425390,19541.436869,-72625.853210
2049.902002,-8586.388927,-16136.489536,-89786.392366
2049.904569,444.123565,-1924.535449,-83351.190182
2049.907137,19985.560434,13471.748144,-69867.909418
2049.909704,-25167.002028,3404.947333,-74770.920605
2049.912271,8142.265362,1628.453072,-72012.976812
2049.914839,888.247130,-3701.029710,-83044.751983
2049.917406,14063.912898,2220.617826,-75537.016103
2049.919974,-13471.748144,1924.535449,-82431.875585
2049.922541,-7402.059420,-148.041188,-76915.987999
2049.925108,-17024.736666,9326.594869,-79367.493593
2049.927676,-4589.276840,-740.205942,-77375.645298
2049.930243,33013.185013,-21317.931130,-86415.572174
2049.932811,-36418.132346,21317.931130,-68642.156621
2049.935378,33753.390955,-26647.413912,-87488.105872
2049.937945,-40711.326810,22354.219448,-68182.499322
2049.940513,30348.443622,-22798.343014,-93923.308055
2049.943080,-27387.619854,26203.290347,-65118.117330
2049.945648,22502.260637,-22502.260637,-87181.667672
2049.948215,23686.590144,15396.283594,-68335.718422
2049.950782,-37306.379477,-18209.066173,-84576.942979
2049.953350,87048.218779,-32717.102636,-87947.763170
2049.955917,-38638.750172,34641.638086,-90399.268764
2049.958485,-43820.191766,-22206.178260,-100052.072039
2049.961052,87344.301156,-38046.585419,-80746.465489
2049.963619,-60400.804867,5773.606348,-72472.634111
2049.966187,-7846.182985,-6809.894666,-81206.122788
2049.968754,46188.850781,-22502.260637,-86722.010374
2049.971322,-54035.033766,10658.965565,-72932.291410
2049.973889,23538.548956,-35677.926404,-92850.774358
2049.976456,-10807.006753,7402.059420,-73391.948708
2049.979024,-2664.741391,-10955.047942,-75383.797003
2049.981591,-19985.560434,296.082377,-80286.808190
2049.984168,37898.544230,-5773.606348,-74311.263306
2049.986745,-5773.606348,2812.782580,-72779.072310
2049.989321,12731.542202,-2664.741391,-74617.701505
2049.991898,-4145.153275,-4441.235652,-80899.684589
2049.994475,23686.590144,-1628.453072,-71246.881314
2049.997052,-6365.771101,-5773.606348,-77528.864398
2049.999629,25907.207970,-17764.942608,-78448.178995
2050.002205,-12731.542202,5033.400406,-76456.330700
2050.004782,-30644.525999,13619.789333,-68795.375720
2050.007359,10955.047942,-20577.725188,-85649.476676
2050.009936,-7105.977043,3552.988522,-71246.881314
2050.012513,-9918.759623,-19097.313304,-87488.105872
2050.015089,17616.901420,-1628.453072,-81206.122788
2050.017666,23982.672521,-1036.288319,-81972.218286
2050.020243,-49889.880491,-1924.535449,-71246.881314
2050.022820,78461.829852,-5773.606348,-72012.976812
2050.025397,-129832.122227,36862.255912,-55618.533155
2050.027973,102888.625938,-45004.521274,-92697.555258
2050.030550,15100.201217,17172.777854,-91625.021561
2050.033127,-70763.688055,32569.061448,-60674.763442
2050.035704,61141.010809,-13767.830521,-77835.302597
2050.038281,-22946.384202,10807.006753,-71706.538613
2050.040857,-25759.166782,-3849.070898,-78907.836294
2050.043434,24574.837274,-13619.789333,-73698.386908
2050.046011,-21910.095883,2072.576638,-75996.673402
2050.048588,-21762.054695,-1924.535449,-81818.999186
2050.051165,31532.773129,-16580.613101,-85802.695776
2050.053741,-23834.631332,21169.889941,-66956.746525
2050.056318,5625.565159,2960.823768,-68795.375720
2050.058895,-18505.148550,-2960.823768,-80899.684589
2050.061472,12287.418637,7846.182985,-70480.785816
2050.064049,-2960.823768,-444.123565,-85036.600278
2050.066625,592.164754,9918.759623,-70634.004916
2050.069202,-9326.594869,-2516.700203,-86262.353075
2050.071779,2220.617826,2220.617826,-74158.044206
2050.074356,-10066.800811,888.247130,-79980.369991
2050.076933,-16580.613101,-6513.812290,-75537.016103
2050.079509,-888.247130,-2812.782580,-80593.246390
2050.082086,-31384.731941,10510.924376,-69714.690318
2050.084663,46484.933158,-14804.118840,-84576.942979
2050.087198,-53442.869012,13471.748144,-68335.718422
2050.089733,71799.976374,-7550.100608,-76303.111601
2050.092267,-66470.493592,27683.702231,-53779.903960
2050.094802,46632.974346,-63953.793389,-97447.347346
2050.097337,41303.491564,8142.265362,-75537.016103
2050.099872,-94894.401764,-6365.771101,-98826.319242
2050.102407,106441.614460,-34641.638086,-77835.302597
2050.104942,15100.201217,2812.782580,-46885.044478
2050.107476,-34937.720462,1036.288319,-74617.701505
2050.110011,30496.484810,-4737.318029,-67722.842023
2050.112546,-8142.265362,-14508.036463,-84270.504780
2050.115081,-17172.777854,-5477.523971,-76456.330700
2050.117616,33161.226202,-29460.196492,-84117.285680
2050.120151,-27091.537477,18209.066173,-70021.128517
2050.122685,2812.782580,-22354.219448,-81665.780087
2050.125220,-12731.542202,7254.018232,-69101.813920
2050.127755,22946.384202,-22650.301825,-88407.420469
2050.130290,-5625.565159,1036.288319,-76609.549800
2050.132825,31680.814318,-4145.153275,-72166.195912
2050.135360,4441.235652,-9622.677246,-80899.684589
2050.137894,21021.848753,-11843.295072,-72012.976812
2050.140429,-21762.054695,-2220.617826,-79520.712692
2050.142964,12139.377449,444.123565,-71553.319513
2050.145499,-8734.430116,-7105.977043,-83351.190182
2050.148034,32421.020260,148.041188,-75077.358804
2050.150568,-16876.695478,-7105.977043,-75690.235202
2050.153103,25018.960840,592.164754,-73545.167808
2050.155638,-9474.636058,-9326.594869,-85802.695776
2050.158173,0.000000,-6809.894666,-67263.184724
2050.160708,30644.525999,9622.677246,-78907.836294
2050.163243,-115176.044575,28275.866984,-67109.965625
2050.165777,119469.239039,-26351.331535,-85189.819378
2050.168312,-81718.735997,32717.102636,-50255.864669
2050.170847,65730.287650,-37454.420665,-101431.043935
2050.173382,-18061.024985,19689.478057,-76149.892501
2050.175917,-23538.548956,-5181.441594,-88100.982270
2050.178452,12583.501014,-1480.411884,-71400.100414
2050.180986,35825.967593,-5329.482782,-79367.493593
2050.183521,-29460.196492,2368.659014,-80286.808190
2050.186056,-4737.318029,1332.370696,-78141.740796
2050.188607,1184.329507,1480.411884,-83810.847481
2050.191157,-30940.608376,15248.242405,-65118.117330
2050.193708,10510.924376,-19689.478057,-87181.667672
2050.196259,-7994.224174,10066.800811,-72012.976812
2050.198809,2072.576638,-6957.935855,-79367.493593
2050.201360,-26351.331535,11103.089130,-73698.386908
2050.203911,12139.377449,-9178.553681,-88100.982270
2050.206461,-24426.796086,12139.377449,-65118.117330
2050.209012,15692.365970,-8882.471304,-80899.684589
2050.211563,7698.141797,11843.295072,-72166.195912
2050.214113,148.041188,-6957.935855,-79827.150892
2050.216664,-1184.329507,296.082377,-85496.257577
2050.219215,16432.571912,-7105.977043,-76609.549800
2050.221765,-9326.594869,4441.235652,-82585.094684
2050.224316,-17616.901420,592.164754,-68029.280222
2050.226867,50185.962868,4293.194464,-76609.549800
2050.229417,-27535.661042,36270.091158,-74617.701505
2050.231968,-48705.550984,-20577.725188,-97600.566445
2050.234519,95930.690083,-17616.901420,-69255.033019
2050.237069,-95930.690083,5921.647536,-72472.634111
2050.239620,27535.661042,-12139.377449,-81359.341888
2050.242171,33457.308578,-18653.189738,-79214.274493
2050.244721,-54479.157331,21021.848753,-69255.033019
2050.247272,56847.816346,-17172.777854,-83810.847481
2050.249823,-15840.407159,16136.489536,-70940.443115
2050.252373,4441.235652,-28127.825796,-96528.032748
2050.254924,-19097.313304,-8142.265362,-79214.274493
2050.257475,18505.148550,5329.482782,-75996.673402
2050.260025,-11103.089130,-4737.318029,-84117.285680
2050.262576,16432.571912,-1036.288319,-74311.263306
2050.265127,-4885.359217,-5033.400406,-80440.027290
2050.267677,2516.700203,3108.864956,-73238.729609
2050.270240,0.000000,-5625.565159,-79520.712692
2050.272803,3404.947333,-10955.047942,-72779.072310
2050.275366,-6513.812290,-11399.171507,-78294.959896
2050.277929,-8142.265362,-3256.906145,-77069.207099
2050.280492,39971.120868,-28719.990550,-85496.257577
2050.283055,-25315.043216,18653.189738,-68335.718422
2050.285618,35974.008781,-27979.784608,-89326.735067
2050.288181,-7698.141797,21465.972318,-57763.600549
2050.290743,6809.894666,-22354.219448,-85802.695776
2050.293306,27535.661042,8290.306550,-70940.443115
2050.295869,-33013.185013,-16284.530724,-80899.684589
2050.298432,56107.610404,-20133.601622,-90552.487864
2050.300995,-27683.702231,29756.278868,-43054.566988
2050.303558,37454.420665,-28275.866984,-95302.279951
2050.306121,61141.010809,-13619.789333,-68948.594820
2050.308684,-60844.928432,26647.413912,-67569.622924
2050.311247,-1184.329507,-8882.471304,-79367.493593
2050.313810,46188.850781,-19245.354492,-78601.398095
2050.316373,-56107.610404,24574.837274,-66190.651027
2050.318936,15988.448347,-23686.590144,-85496.257577
2050.321499,-19097.313304,15840.407159,-72472.634111
2050.324061,-15692.365970,-11843.295072,-89020.296868
2050.326624,-1184.329507,8882.471304,-72779.072310
2050.329187,30200.402434,-16728.654289,-82125.437386
2050.331750,-12583.501014,2516.700203,-79980.369991
2050.334313,4441.235652,3256.906145,-73698.386908
2050.336876,-6661.853478,3404.947333,-79827.150892
2050.339439,4441.235652,2960.823768,-73391.948708
2050.342002,-8586.388927,-3552.988522,-85496.257577
2050.344565,5773.606348,6069.688724,-70940.443115
2050.347128,-1184.329507,6069.688724,-80899.684589
2050.349691,-9474.636058,-740.205942,-76915.987999
2050.352254,-11843.295072,2960.823768,-80286.808190
2050.354817,-40415.244433,5773.606348,-70634.004916
2050.357380,45152.562462,-15100.201217,-87488.105872
2050.359942,-67062.658345,26055.249158,-59755.448844
2050.362505,83347.189069,-33605.349767,-86415.572174
2050.365068,-51814.415940,46336.891969,-63892.364533
2050.367631,-11843.295072,-39082.873738,-110317.751712
2050.370194,80978.530055,-15396.283594,-59602.229744
2050.372721,-106293.573271,3849.070898,-85496.257577
2050.375248,71355.852809,-16876.695478,-82125.437386
2050.377775,53146.786636,-7402.059420,-52094.493864
2050.380302,-22798.343014,7254.018232,-75077.358804
2050.382829,6217.729913,-2664.741391,-72472.634111
2050.385356,6957.935855,-8882.471304,-83351.190182
2050.387883,-18061.024985,1776.494261,-68335.718422
2050.390410,6661.853478,-26647.413912,-86722.010374
2050.392936,-1480.411884,6365.771101,-74770.920605
2050.395463,3997.112087,-16136.489536,-81052.903688
2050.397990,-16728.654289,3849.070898,-79827.150892
2050.400517,18949.272115,-26055.249158,-85955.914876
2050.403044,-30348.443622,11399.171507,-68642.156621
2050.405571,26943.496289,-14211.954086,-78141.740796
2050.408098,5477.523971,-10362.883188,-76303.111601
2050.410625,31532.773129,-2072.576638,-71400.100414
2050.413152,-11843.295072,2072.576638,-75690.235202
2050.415679,13027.624579,-9622.677246,-76915.987999
2050.418206,4737.318029,-2220.617826,-76762.768900
2050.420732,-16136.489536,-6957.935855,-72166.195912
2050.423259,24574.837274,-5477.523971,-86109.133975
2050.425786,-13323.706956,6661.853478,-66803.527426
2050.428313,45004.521274,-10362.883188,-83504.409282
2050.430840,7994.224174,25463.084405,-58223.257848
2050.433367,-84383.477388,-4293.194464,-82431.875585
2050.435894,59956.681302,-7550.100608,-71400.100414
2050.438421,-24870.919651,-7105.977043,-71859.757712
2050.440948,-12879.583391,1480.411884,-84423.723880
2050.443475,61881.216751,-11991.336260,-92697.555258
2050.446002,-57291.939911,21169.889941,-63892.364533
2050.448529,31088.649564,-21465.972318,-86722.010374
2050.451055,-2516.700203,3552.988522,-78907.836294
2050.453582,-14952.160028,3849.070898,-65884.212828
2050.456109,-3256.906145,-6809.894666,-83504.409282
2050.458636,10510.924376,13471.748144,-73545.167808
2050.461163,-16580.613101,740.205942,-79520.712692
2050.463690,-7550.100608,5477.523971,-70174.347617
2050.466217,-1628.453072,-6809.894666,-82738.313784
2050.468744,-36270.091158,24278.754898,-67569.622924
2050.471271,16728.654289,-15988.448347,-86262.353075
2050.473815,-7402.059420,10214.842000,-71093.662214
2050.476359,19245.354492,-9326.594869,-83964.066581
2050.478903,-14508.036463,13619.789333,-69867.909418
2050.481447,740.205942,8882.471304,-68795.375720
2050.483991,-4885.359217,15396.283594,-77528.864398
2050.486535,-11399.171507,-1776.494261,-70940.443115
2050.489079,13027.624579,-4885.359217,-82431.875585
2050.491623,-40711.326810,10510.924376,-72932.291410
2050.494167,49741.839302,-44412.356520,-87641.324971
2050.496711,-5625.565159,24722.878463,-81818.999186
2050.499255,-87048.218779,4293.194464,-89939.611465
2050.501799,107033.779213,-16728.654289,-66343.870127
2050.504343,-69135.234983,-4293.194464,-72319.415011
2050.506887,-51518.333563,7402.059420,-72472.634111
2050.509431,87640.383533,-31088.649564,-80133.589091
2050.511975,-19689.478057,13767.830521,-62819.830836
2050.514519,-9030.512492,-12731.542202,-85036.600278
2050.517063,35529.885216,-2664.741391,-63892.364533
2050.519607,22798.343014,1628.453072,-54699.218557
2050.522151,-28571.949361,-13471.748144,-83657.628382
2050.524695,39378.956114,0.000000,-75537.016103
2050.527239,-4293.194464,-6217.729913,-83197.971083
2050.529783,3701.029710,-1924.535449,-68948.594820
2050.532327,6957.935855,-25907.207970,-84270.504780
2050.534871,-11547.212695,888.247130,-70021.128517
2050.537415,9030.512492,-26647.413912,-84117.285680
2050.539959,-7698.141797,5625.565159,-74617.701505
2050.542503,20281.642811,-15840.407159,-82278.656485
2050.545047,-24278.754898,6365.771101,-68948.594820
2050.547591,32421.020260,-14508.036463,-83351.190182
2050.550135,-30792.567187,7105.977043,-62666.611736
2050.552679,33753.390955,-8586.388927,-82738.313784
2050.555223,-27683.702231,5625.565159,-75383.797003
2050.557767,63509.669824,-7994.224174,-78754.617194
2050.560311,-55219.363273,24130.713709,-73391.948708
2050.562855,36714.214723,-33309.267390,-94689.403553
2050.565399,-3701.029710,11251.130318,-77835.302597
2050.567943,-94598.319388,7550.100608,-74464.482406
2050.570487,76093.170838,-1776.494261,-74311.263306
2050.573031,-44560.397708,26499.372724,-49489.769171
2050.575589,740.205942,-15100.201217,-91318.583362
2050.578147,14656.077652,2072.576638,-87028.448573
2050.580704,16284.530724,-15100.201217,-79673.931792
2050.583262,-53442.869012,15248.242405,-65118.117330
2050.585819,54331.116143,-14804.118840,-80899.684589
2050.588377,-22798.343014,14211.954086,-62819.830836
2050.590935,13915.871710,-14359.995275,-88407.420469
2050.593492,6365.771101,6069.688724,-75690.235202
2050.596050,740.205942,-5477.523971,-77375.645298
2050.598607,-19689.478057,5329.482782,-77528.864398
2050.601165,25611.125593,2664.741391,-72012.976812
2050.603722,-7105.977043,-6365.771101,-83351.190182
2050.606280,-15544.324782,592.164754,-75230.577904
2050.608838,19097.313304,-5921.647536,-81512.560987
2050.611395,-33309.267390,11399.171507,-71246.881314
2050.613953,-3404.947333,-3701.029710,-81818.999186
2050.616510,-25315.043216,2072.576638,-75690.235202
2050.619068,29756.278868,-11843.295072,-87028.448573
2050.621626,-58032.145853,16728.654289,-64658.460031
2050.624183,76241.212026,-26055.249158,-83964.066581
2050.626741,-66470.493592,46929.056723,-56537.847752
2050.629298,11399.171507,-57588.022288,-107559.807919
2050.631856,96522.854837,-8290.306550,-74924.139704
2050.634413,-13915.871710,3701.029710,-33861.421012
2050.636971,6365.771101,-27535.661042,-87947.763170
2050.639529,26351.331535,7698.141797,-84576.942979
2050.642086,-20429.683999,9178.553681,-75537.016103
2050.644644,9326.594869,-3849.070898,-73545.167808
2050.647201,148.041188,-5181.441594,-87334.886772
2050.649759,-17172.777854,-5033.400406,-72319.415011
2050.652317,11547.212695,-19985.560434,-81512.560987
2050.654874,-2960.823768,3552.988522,-77682.083497
2050.657432,22206.178260,-25018.960840,-92697.555258
2050.659989,-31088.649564,8438.347739,-72166.195912
2050.662547,37898.544230,-18801.230927,-80133.589091
2050.665105,-19689.478057,-592.164754,-73698.386908
2050.667662,27387.619854,-21317.931130,-82431.875585
2050.670220,-4145.153275,2072.576638,-70787.224015
2050.672777,33161.226202,-10362.883188,-83351.190182
2050.675335,-11399.171507,-3552.988522,-75230.577904
2050.677860,33753.390955,-4885.359217,-74311.263306
2050.680385,-22946.384202,-10807.006753,-84117.285680
2050.682910,11251.130318,-10362.883188,-79061.055394
2050.685435,-8882.471304,-1184.329507,-81359.341888
2050.687960,22798.343014,-15988.448347,-77682.083497
2050.690485,13915.871710,16580.613101,-69867.909418
2050.693010,-102000.378808,6217.729913,-70021.128517
2050.695535,89416.877794,-28275.866984,-82431.875585
2050.698060,-98003.266721,30940.608376,-48110.797274
2050.700585,59956.681302,-38046.585419,-100664.948437
2050.703111,-30496.484810,37010.297100,-72472.634111
2050.705636,-17024.736666,6217.729913,-69408.252119
2050.708161,-14359.995275,-4441.235652,-91318.583362
2050.710686,33161.226202,-3256.906145,-78141.740796
2050.713211,-33013.185013,3701.029710,-79061.055394
2050.715736,11547.212695,1184.329507,-75077.358804
2050.718261,4737.318029,6957.935855,-80440.027290
2050.720786,-1924.535449,13471.748144,-62973.049936
2050.723311,-4589.276840,-10214.842000,-89173.515967
2050.725836,-3108.864956,10214.842000,-74617.701505
2050.728361,-19985.560434,2220.617826,-83197.971083
2050.730886,-34049.473332,15248.242405,-66343.870127
2050.733411,31384.731941,-21910.095883,-88407.420469
2050.735936,-32865.143825,25167.002028,-66190.651027
2050.738461,26795.455100,-18505.148550,-85802.695776
2050.740986,-25611.125593,20873.807564,-71093.662214
2050.743511,27091.537477,-19837.519246,-89939.611465
2050.746037,-25018.960840,16136.489536,-65424.555529
2050.748562,15248.242405,-27091.537477,-89173.515967
2050.751087,24130.713709,19393.395680,-66497.089226
2050.753612,-20429.683999,-1480.411884,-62513.392637
2050.756137,10658.965565,-44856.480085,-89173.515967
2050.758662,39378.956114,-1776.494261,-84883.381178
2050.761187,-98595.431474,-296.082377,-84270.504780
2050.763712,76093.170838,-38194.626607,-81359.341888
2050.766237,-14211.954086,-1628.453072,-69408.252119
2050.768762,-35677.926404,-5033.400406,-74617.701505
2050.771287,57736.063476,-34049.473332,-82738.313784
2050.773812,-38342.667796,19245.354492,-67722.842023
2050.776337,9474.636058,-38490.708984,-90246.049664
2050.778838,13471.748144,-4293.194464,-71553.319513
2050.781339,25315.043216,-9326.594869,-78448.178995
2050.783840,-20429.683999,1036.288319,-75383.797003
2050.786341,37750.503042,-5625.565159,-71706.538613
2050.788842,7550.100608,-8438.347739,-84270.504780
2050.791342,10214.842000,-1628.453072,-64811.679131
2050.793843,-4293.194464,-8438.347739,-81359.341888
2050.796344,5181.441594,-1776.494261,-73698.386908
2050.798845,-1036.288319,-7105.977043,-77835.302597
2050.801346,6365.771101,-8438.347739,-77835.302597
2050.803847,31532.773129,-26055.249158,-85649.476676
2050.806348,-42191.738694,4589.276840,-71246.881314
2050.808849,35677.926404,-27091.537477,-91012.145162
2050.811349,-31680.814318,30200.402434,-66803.527426
2050.813850,23242.466579,-41303.491564,-95149.060852
2050.816351,-888.247130,35825.967593,-51328.398366
2050.818852,-64990.081708,-4885.359217,-90705.706963
2050.821353,61289.051998,-6513.812290,-73545.167808
2050.823854,-8438.347739,-1628.453072,-69867.909418
2050.826355,-18801.230927,-5181.441594,-91165.364262
2050.828856,41155.450375,-9178.553681,-77988.521696
2050.831356,-29016.072926,8882.471304,-84423.723880
2050.833857,-13915.871710,-592.164754,-79214.274493
2050.836358,27535.661042,-16136.489536,-81665.780087
2050.838859,-22502.260637,6661.853478,-71246.881314
2050.841360,-1480.411884,-10807.006753,-77682.083497
2050.843861,-3552.988522,11843.295072,-74004.825107
2050.846362,-20281.642811,-8882.471304,-77682.083497
2050.848863,-8290.306550,8438.347739,-72932.291410
2050.851363,13471.748144,-5921.647536,-84576.942979
2050.853864,-24426.796086,15396.283594,-67569.622924
2050.856365,15988.448347,-5477.523971,-81359.341888
2050.858866,-7846.182985,5181.441594,-77069.207099
2050.861367,9770.718434,-3552.988522,-74311.263306
2050.863868,-11251.130318,-3256.906145,-83197.971083
2050.866369,30644.525999,16432.571912,-67876.061123
2050.868870,-25611.125593,-740.205942,-80440.027290
2050.871370,37750.503042,-5033.400406,-73238.729609
2050.873871,-50037.921679,18357.107362,-75690.235202
2050.876372,27831.743419,-44560.397708,-92697.555258
2050.878896,87640.383533,-28127.825796,-83197.971083
2050.881420,-58476.269418,46632.974346,-75077.358804
2050.883944,-14804.118840,-41895.656317,-114607.886501
2050.886468,82310.900750,-26203.290347,-63739.145434
2050.888992,-42635.862259,-5181.441594,-75383.797003
2050.891516,9474.636058,444.123565,-79214.274493
2050.894040,37454.420665,-13767.830521,-80899.684589
2050.896564,-31680.814318,6957.935855,-75843.454302
2050.899088,45744.727216,-3997.112087,-72625.853210
2050.901612,2960.823768,444.123565,-80286.808190
2050.904136,-18505.148550,8882.471304,-70327.566716
2050.906660,4293.194464,-21910.095883,-83044.751983
2050.909184,-14063.912898,9326.594869,-67876.061123
2050.911708,17320.819043,-27387.619854,-90705.706963
2050.914232,-14804.118840,2960.823768,-69255.033019
2050.916756,31236.690752,-19393.395680,-79673.931792
2050.919280,-33161.226202,15396.283594,-68335.718422
2050.921804,33161.226202,-24574.837274,-88254.201370
2050.924328,-37454.420665,12435.459826,-64811.679131
2050.926852,40415.244433,-27091.537477,-88407.420469
2050.929376,-4145.153275,-888.247130,-80899.684589
2050.931900,27535.661042,-10658.965565,-76762.768900
2050.934424,-444.123565,7994.224174,-83657.628382
2050.936948,-35085.761651,-7698.141797,-75383.797003
2050.939472,39971.120868,-444.123565,-77528.864398
2050.941996,-77573.582722,28868.031738,-50255.864669
2050.944520,68246.987852,-29312.155303,-95915.156350
2050.947044,-33309.267390,35529.885216,-94382.965354
2050.949569,-16432.571912,1332.370696,-89020.296868
2050.952093,27831.743419,-11991.336260,-77682.083497
2050.954617,25759.166782,-12731.542202,-81972.218286
2050.957141,-71059.770432,25463.084405,-69867.909418
2050.959665,46336.891969,-24574.837274,-83657.628382
2050.962189,2368.659014,-1332.370696,-77528.864398
2050.964713,-6661.853478,-444.123565,-82125.437386
2050.967237,22946.384202,-5329.482782,-79520.712692
2050.969761,5625.565159,5921.647536,-62819.830836
2050.972285,-28868.031738,-1480.411884,-82891.532884
2050.974809,26055.249158,5181.441594,-74311.263306
2050.977333,-11991.336260,5625.565159,-75996.673402
2050.979835,-20133.601622,7550.100608,-74311.263306
2050.982337,19541.436869,-8290.306550,-81359.341888
2050.984839,-28423.908173,12583.501014,-67876.061123
2050.987341,-8734.430116,-7550.100608,-85496.257577
2050.989843,-21317.931130,-1332.370696,-79214.274493
2050.992345,20873.807564,-9178.553681,-83657.628382
2050.994847,-42635.862259,6217.729913,-72166.195912
2050.997349,77129.459156,-6513.812290,-75996.673402
2050.999851,-83347.189069,32865.143825,-48110.797274
2051.002353,-26055.249158,-29756.278868,-102963.234931
2051.004855,92821.825127,-19245.354492,-69714.690318
2051.007357,-86604.095214,9178.553681,-59449.010645
2051.009859,52850.704259,-22946.384202,-101584.263035
2051.012361,23390.507767,10955.047942,-61594.078039
2051.014863,-41155.450375,-5773.606348,-81818.999186
2051.017365,35233.802839,-12435.459826,-76762.768900
2051.019867,-13915.871710,888.247130,-81052.903688
2051.022369,-10510.924376,-15988.448347,-78907.836294
2051.024871,11991.336260,-7846.182985,-75843.454302
2051.027374,-20281.642811,21910.095883,-69255.033019
2051.029876,25315.043216,-19837.519246,-83964.066581
2051.032378,-6069.688724,4737.318029,-72779.072310
2051.034880,22206.178260,-22206.178260,-83657.628382
2051.037382,-14508.036463,3701.029710,-70787.224015
2051.039884,24130.713709,-15988.448347,-80746.465489
2051.042386,-6365.771101,1480.411884,-73698.386908
2051.044888,31236.690752,-17320.819043,-82278.656485
2051.047390,9326.594869,-3701.029710,-78294.959896
2051.049892,4737.318029,-11547.212695,-73391.948708
2051.052394,6513.812290,-11547.212695,-82278.656485
2051.054896,-22354.219448,8586.388927,-74924.139704
2051.057398,32717.102636,-29608.237680,-87488.105872
2051.059900,-7994.224174,36418.132346,-60674.763442
2051.062402,-67802.864287,-9622.677246,-79673.931792
2051.064904,59068.434172,-3849.070898,-72779.072310
2051.067406,-55959.569215,-10510.924376,-74770.920605
2051.069908,-4441.235652,-6069.688724,-80899.684589
2051.072410,40267.203245,-6513.812290,-87181.667672
2051.074912,-83051.106692,33161.226202,-68795.375720
2051.077414,24130.713709,-17172.777854,-83197.971083
2051.079940,15396.283594,-2220.617826,-80746.465489
2051.082465,-11843.295072,14508.036463,-60368.325242
2051.084990,-15544.324782,-1628.453072,-81359.341888
2051.087515,22354.219448,10362.883188,-70480.785816
2051.090040,-26499.372724,0.000000,-77835.302597
2051.092565,14952.160028,-5625.565159,-75383.797003
2051.095090,2516.700203,0.000000,-85189.819378
2051.097615,-20281.642811,10510.924376,-73391.948708
2051.100140,1776.494261,-12287.418637,-84883.381178
2051.102665,-15248.242405,15840.407159,-67109.965625
2051.105191,9326.594869,-8438.347739,-84423.723880
2051.107716,-30644.525999,27535.661042,-63432.707234
2051.110241,41451.532752,-28275.866984,-90246.049664
2051.112766,-14211.954086,16136.489536,-72472.634111
2051.115291,296.082377,-19985.560434,-80593.246390
2051.117816,36418.132346,8142.265362,-59295.791545
2051.120341,-37602.461854,15840.407159,-54086.342159
2051.122866,45744.727216,-52554.621882,-95149.060852
2051.125391,125242.845386,-26055.249158,-68029.280222
2051.127917,-84235.436200,5625.565159,-59142.572446
2051.130442,42931.944636,-24130.713709,-93157.212557
2051.132967,-5181.441594,-3849.070898,-86109.133975
2051.135492,-58032.145853,9474.636058,-71859.757712
2051.138017,48409.468607,-24574.837274,-79827.150892
2051.140542,-17764.942608,5625.565159,-77835.302597
2051.143067,2516.700203,-26647.413912,-88867.077768
2051.145592,14656.077652,4293.194464,-64352.021832
2051.148117,3552.988522,-15692.365970,-78141.740796
2051.150643,-22798.343014,-1776.494261,-73391.948708
2051.153168,47373.180288,-10807.006753,-72932.291410
2051.155693,-4737.318029,-5625.565159,-71246.881314
2051.158218,20429.683999,-5921.647536,-76915.987999
2051.160743,-2368.659014,-3256.906145,-82585.094684
2051.163268,16876.695478,-10066.800811,-74464.482406
2051.165793,-8290.306550,444.123565,-80440.027290
2051.168318,17912.983796,-6957.935855,-72932.291410
2051.170843,-18357.107362,-5477.523971,-78907.836294
2051.173368,20725.766376,-11103.089130,-80286.808190
2051.175894,40415.244433,-9030.512492,-82738.313784
2051.178419,-86752.136402,9178.553681,-72472.634111
2051.180963,83051.106692,-40119.162056,-94842.622652
2051.183507,-67210.699534,58920.392983,-50562.302868
2051.186051,34049.473332,-46188.850781,-110164.532612
2051.188596,3849.070898,23982.672521,-67722.842023
2051.191140,-37898.544230,12287.418637,-80133.589091
2051.193684,44708.438897,-3701.029710,-66037.431928
2051.196228,6513.812290,-1924.535449,-70634.004916
2051.198772,-47817.303853,1332.370696,-80746.465489
2051.201317,740.205942,-4737.318029,-77375.645298
2051.203861,7550.100608,-5181.441594,-90399.268764
2051.206405,-9030.512492,8142.265362,-72166.195912
2051.208949,3849.070898,-14656.077652,-82125.437386
2051.211494,-11103.089130,11103.089130,-73698.386908
2051.214038,-15100.201217,-3404.947333,-79214.274493
2051.216582,-20281.642811,3997.112087,-74464.482406
2051.219126,9030.512492,-9178.553681,-82278.656485
2051.221670,-29016.072926,20873.807564,-72166.195912
2051.224215,20725.766376,-7254.018232,-81206.122788
2051.226759,-14211.954086,10658.965565,-75996.673402
2051.229303,27979.784608,-9622.677246,-80593.246390
2051.231847,-26203.290347,9326.594869,-76762.768900
2051.234392,11251.130318,-12879.583391,-76762.768900
2051.236936,25907.207970,13619.789333,-73085.510509
2051.239480,-30940.608376,9622.677246,-60521.544342
2051.242024,63657.711012,-35085.761651,-102656.796732
2051.244568,-48261.427418,41007.409187,-66650.308326
2051.247113,22650.301825,-38786.791361,-94382.965354
2051.249657,27535.661042,-34049.473332,-70174.347617
2051.252201,-19097.313304,-5773.606348,-72319.415011
2051.254745,-38934.832549,5477.523971,-74924.139704
2051.257289,69431.317360,-41155.450375,-89173.515967
2051.259834,-42339.779882,28275.866984,-62973.049936
2051.262378,16876.695478,-28719.990550,-91318.583362
2051.264922,7105.977043,9770.718434,-58529.696047
2051.267466,-444.123565,-6365.771101,-77375.645298
2051.270011,-5477.523971,5477.523971,-75690.235202
2051.272555,48705.550984,-11695.253884,-73851.606007
2051.275099,-9622.677246,-4293.194464,-82585.094684
2051.277643,7550.100608,0.000000,-68182.499322
2051.280187,-8438.347739,-6069.688724,-80440.027290
2051.282746,-1480.411884,-9326.594869,-76915.987999
2051.285305,10807.006753,-2220.617826,-77375.645298
2051.287865,5477.523971,-10807.006753,-71246.881314
2051.290424,2368.659014,-6217.729913,-76915.987999
2051.292983,-37010.297100,14656.077652,-66343.870127
2051.295542,47077.097911,-13323.706956,-83197.971083
2051.298102,-76093.170838,25611.125593,-70787.224015
2051.300661,69283.276171,-45004.521274,-108938.779816
2051.303220,36122.049970,6661.853478,-74770.920605
2051.305780,-40267.203245,16728.654289,-45659.291681
2051.308339,33457.308578,-14063.912898,-97294.128246
2051.310898,-27535.661042,32124.937883,-60827.982541
2051.313457,-18505.148550,-9622.677246,-95302.279951
2051.316017,33901.432144,-4441.235652,-75537.016103
2051.318576,-19245.354492,11251.130318,-63279.488135
2051.321135,-17616.901420,-3256.906145,-74770.920605
2051.323694,18801.230927,-13027.624579,-84576.942979
2051.326254,-18949.272115,19985.560434,-65424.555529
2051.328813,6217.729913,-17468.860231,-91471.802461
2051.331372,-20873.807564,11103.089130,-69867.909418
2051.333932,28571.949361,-13323.706956,-80899.684589
2051.336491,-25463.084405,14359.995275,-72166.195912
2051.339050,30348.443622,592.164754,-79827.150892
2051.341609,-3552.988522,2220.617826,-77528.864398
2051.344169,2368.659014,2960.823768,-72012.976812
2051.346728,-3404.947333,11103.089130,-77375.645298
2051.349287,6513.812290,1480.411884,-66956.746525
2051.351846,10362.883188,-19689.478057,-83504.409282
2051.354406,-24278.754898,22058.137072,-74464.482406
2051.356965,2368.659014,-46632.974346,-98519.881043
2051.359524,48557.509795,-888.247130,-67876.061123
2051.362083,-44708.438897,2072.576638,-58682.915147
2051.364616,25463.084405,592.164754,-65577.774629
2051.367149,6513.812290,-7994.224174,-77222.426198
2051.369681,-53886.992578,9918.759623,-65577.774629
2051.372214,88084.507098,-39230.914926,-85189.819378
2051.374746,-35381.844028,24278.754898,-51788.055665
2051.377279,-8438.347739,6365.771101,-77069.207099
2051.379812,14508.036463,-5625.565159,-79673.931792
2051.382344,13767.830521,3256.906145,-64198.802732
2051.384877,-12287.418637,-8882.471304,-82891.532884
2051.387409,25759.166782,6069.688724,-72472.634111
2051.389942,-4589.276840,-12287.418637,-85496.257577
2051.392475,10658.965565,-4441.235652,-74311.263306
2051.395007,-7402.059420,0.000000,-77375.645298
2051.397540,-14211.954086,-6069.688724,-76303.111601
2051.400072,19837.519246,-16432.571912,-78141.740796
2051.402605,-6809.894666,13471.748144,-70021.128517
2051.405138,29312.155303,-25907.207970,-81359.341888
2051.407670,-10214.842000,16876.695478,-66803.527426
2051.410203,20281.642811,-16432.571912,-80899.684589
2051.412735,-10658.965565,16432.571912,-64964.898230
2051.415268,-22206.178260,-20577.725188,-86875.229473
2051.417801,39675.038491,-17912.983796,-88254.201370
2051.420333,-5625.565159,31236.690752,-61594.078039
2051.422866,18653.189738,-26499.372724,-99132.757441
2051.425398,55219.363273,1036.288319,-67876.061123
2051.427931,-62029.257940,31976.896694,-61594.078039
2051.430463,10362.883188,-17912.983796,-82738.313784
2051.432996,28571.949361,-5921.647536,-79214.274493
2051.435529,-52702.663070,18505.148550,-62973.049936
2051.438061,20873.807564,-30496.484810,-87334.886772
2051.440594,-13175.665768,8438.347739,-79061.055394
2051.443126,-4885.359217,-15100.201217,-87794.544071
2051.445659,-27239.578666,10658.965565,-68029.280222
2051.448192,21614.013506,-17024.736666,-83044.751983
2051.450724,-1184.329507,1776.494261,-79673.931792
2051.453257,5625.565159,2812.782580,-73391.948708
2051.455789,4589.276840,5181.441594,-80899.684589
2051.458322,9030.512492,7994.224174,-70174.347617
2051.460855,-30348.443622,-1628.453072,-84270.504780
2051.463387,25759.166782,11843.295072,-67416.403824
2051.465937,-21169.889941,7105.977043,-75843.454302
2051.468486,19245.354492,-10362.883188,-75843.454302
2051.471036,-23094.425390,17172.777854,-77528.864398
2051.473586,888.247130,-33605.349767,-88867.077768
2051.476135,76241.212026,-45744.727216,-94842.622652
2051.478685,-79942.241736,45596.686027,-62819.830836
2051.481235,47373.180288,-49741.839302,-96528.032748
2051.483784,8734.430116,17320.819043,-65730.993728
2051.486334,-42339.779882,-6957.935855,-98213.442844
2051.488883,36122.049970,5033.400406,-65424.555529
2051.491433,36122.049970,-14063.912898,-87641.324971
2051.493983,-50778.127621,19097.313304,-66650.308326
2051.496532,47077.097911,-16432.571912,-77988.521696
2051.499082,-1628.453072,4441.235652,-71400.100414
2051.501631,-2516.700203,7846.182985,-66956.746525
2051.504181,6957.935855,-18061.024985,-93463.650756
2051.506731,1036.288319,7105.977043,-70634.004916
2051.509280,-14804.118840,-7105.977043,-79367.493593
2051.511830,1036.288319,-8290.306550,-76303.111601
2051.514380,7254.018232,-16432.571912,-82278.656485
2051.516929,-16580.613101,-2220.617826,-72012.976812
2051.519479,32421.020260,-18949.272115,-81972.218286
2051.522028,-22502.260637,-2368.659014,-70480.785816
2051.524578,18209.066173,-9178.553681,-78448.178995
2051.527128,-32124.937883,17024.736666,-64658.460031
2051.529677,61437.093186,-25463.084405,-86875.229473
2051.532227,-23834.631332,40267.203245,-59755.448844
2051.534776,-12287.418637,-22502.260637,-87334.886772
2051.537326,45596.686027,-296.082377,-75230.577904
2051.539876,-39082.873738,6809.894666,-52554.151163
2051.542425,18209.066173,-21169.889941,-92084.678860
2051.544975,3256.906145,28127.825796,-64658.460031
2051.547525,-27239.578666,-592.164754,-88560.639569
2051.550074,-5477.523971,-2664.741391,-70021.128517
2051.552624,32569.061448,-17172.777854,-85189.819378
2051.555173,-55515.445650,30052.361245,-63739.145434
2051.557723,15692.365970,-28571.949361,-90858.926063
2051.560273,-17468.860231,15100.201217,-67876.061123
2051.562822,15840.407159,-13767.830521,-88100.982270
2051.565372,-31828.855506,18653.189738,-67569.622924
2051.567935,34493.596897,-13471.748144,-82891.532884
2051.570499,-29460.196492,19097.313304,-75996.673402
2051.573062,19837.519246,-13175.665768,-84576.942979
2051.575626,-16728.654289,-3997.112087,-89173.515967
2051.578189,9770.718434,19245.354492,-67416.403824
2051.580753,-19097.313304,-2072.576638,-78754.617194
2051.583316,18949.272115,-2516.700203,-78754.617194
2051.585880,-30348.443622,7994.224174,-77682.083497
2051.588443,22354.219448,-26499.372724,-83964.066581
2051.591007,4441.235652,14508.036463,-71706.538613
2051.593570,-54923.280896,-14359.995275,-78294.959896
2051.596133,83051.106692,-18801.230927,-82738.313784
2051.598697,-60992.969621,7105.977043,-41062.718693
2051.601260,-10510.924376,-27535.661042,-101124.605736
2051.603824,67506.781910,-12139.377449,-56997.505051
2051.606387,-15100.201217,-6809.894666,-66650.308326
2051.608951,-15100.201217,2812.782580,-80440.027290
2051.611514,37602.461854,-13471.748144,-84270.504780
2051.614078,-13915.871710,3552.988522,-68795.375720
2051.616641,18801.230927,-8882.471304,-84576.942979
2051.619205,20429.683999,-444.123565,-78141.740796
2051.621768,148.041188,3552.988522,-66803.527426
2051.624332,-4293.194464,-8586.388927,-84117.285680
2051.626895,3256.906145,-5033.400406,-74311.263306
2051.629459,6809.894666,-22650.301825,-80899.684589
2051.632022,-23982.672521,2664.741391,-73238.729609
2051.634585,39823.079680,-26055.249158,-88407.420469
2051.637149,-29756.278868,3701.029710,-66190.651027
2051.639712,25167.002028,-15840.407159,-84423.723880
2051.642276,-40119.162056,19393.395680,-64964.898230
2051.644839,56551.733969,-22946.384202,-87947.763170
2051.647403,-45152.562462,39971.120868,-59908.667944
2051.649966,-26499.372724,-2812.782580,-73085.510509
2051.652530,46484.933158,-14359.995275,-81972.218286
2051.655093,-40119.162056,16432.571912,-59755.448844
2051.657657,10066.800811,-19689.478057,-99592.414740
2051.660220,15544.324782,18949.272115,-70021.128517
2051.662784,-43672.150578,5033.400406,-76915.987999
2051.665347,28571.949361,-2960.823768,-71246.881314
2051.667910,-1628.453072,4145.153275,-74464.482406
2051.670485,-28423.908173,7698.141797,-72012.976812
2051.673059,7254.018232,-15396.283594,-85189.819378
2051.675633,-6661.853478,12731.542202,-61440.858940
2051.678207,13471.748144,-9622.677246,-81818.999186
2051.680781,-31532.773129,14656.077652,-74770.920605
2051.683356,36270.091158,-10955.047942,-81206.122788
2051.685930,-16580.613101,14508.036463,-76456.330700
2051.688504,8290.306550,-3997.112087,-83657.628382
2051.691078,-5033.400406,1184.329507,-75996.673402
2051.693652,18209.066173,11103.089130,-66803.527426
2051.696226,-26499.372724,1628.453072,-80593.246390
2051.698801,42783.903448,-7105.977043,-73238.729609
2051.701375,13027.624579,11547.212695,-79061.055394
2051.703949,-48409.468607,-10362.883188,-75690.235202
2051.706523,74020.594200,-34345.555709,-88407.420469
2051.709097,-24574.837274,31976.896694,-68335.718422
2051.711672,-44264.315332,-37010.297100,-111390.285409
2051.714246,84827.600953,-18357.107362,-53013.808462
2051.716820,-6217.729913,-8142.265362,-66037.431928
2051.719394,-5921.647536,1184.329507,-84883.381178
2051.721968,40267.203245,-10510.924376,-83657.628382
2051.724543,-25018.960840,9918.759623,-68182.499322
2051.727117,-14804.118840,-3256.906145,-75383.797003
2051.729691,13619.789333,-7402.059420,-76303.111601
2051.732265,-6069.688724,3997.112087,-74617.701505
2051.734839,3997.112087,-18505.148550,-81359.341888
2051.737413,-592.164754,-3256.906145,-73545.167808
2051.739988,888.247130,-21465.972318,-84883.381178
2051.742562,-21317.931130,5477.523971,-68182.499322
2051.745136,27535.661042,-29756.278868,-84117.285680
2051.747710,-22354.219448,15544.324782,-66343.870127
2051.750284,29904.320057,-29164.114115,-86262.353075
2051.752859,12583.501014,4737.318029,-72166.195912
2051.755433,-1776.494261,5773.606348,-65271.336430
2051.758007,11695.253884,-11251.130318,-88867.077768
2051.760581,-4293.194464,25611.125593,-63279.488135
2051.763155,-2516.700203,-21614.013506,-93310.431656
2051.765729,21614.013506,21021.848753,-67263.184724
2051.768304,-48113.386230,888.247130,-70634.004916
2051.770878,39378.956114,6957.935855,-71706.538613
2051.773460,-43820.191766,26943.496289,-68335.718422
2051.776043,1480.411884,-14952.160028,-65271.336430
2051.778626,47225.139100,-22058.137072,-83964.066581
2051.781208,-27683.702231,27535.661042,-67876.061123
2051.783791,7994.224174,-13915.871710,-88407.420469
2051.786374,-13915.871710,6809.894666,-70787.224015
2051.788956,26943.496289,-15692.365970,-85802.695776
2051.791539,-28571.949361,13915.871710,-67569.622924
2051.794122,18801.230927,-16432.571912,-83351.190182
2051.796704,-12287.418637,9770.718434,-73698.386908
2051.799287,20281.642811,6809.894666,-78141.740796
2051.801869,-4145.153275,3404.947333,-79214.274493
2051.804452,-17172.777854,6957.935855,-79061.055394
2051.807035,-2812.782580,-4737.318029,-81665.780087
2051.809617,-21465.972318,8882.471304,-71553.319513
2051.812200,7254.018232,-21465.972318,-86722.010374
2051.814783,-15248.242405,21465.972318,-72779.072310
2051.817365,-4441.235652,-36270.091158,-89633.173266
2051.819948,47077.097911,-8882.471304,-77528.864398
2051.822531,-32421.020260,1332.370696,-62053.735338
2051.825113,19393.395680,-5329.482782,-58070.038748
2051.827696,13175.665768,-22502.260637,-71093.662214
2051.830278,-58920.392983,9918.759623,-69561.471218
2051.832861,44412.356520,-13471.748144,-80133.589091
2051.835444,15840.407159,-2664.741391,-89479.954166
2051.838026,-11843.295072,14952.160028,-67263.184724
2051.840609,-5773.606348,-4145.153275,-80746.465489
2051.843192,20725.766376,888.247130,-79367.493593
2051.845774,-14359.995275,-2960.823768,-81359.341888
2051.848357,18357.107362,-4441.235652,-75383.797003
2051.850940,10066.800811,-7846.182985,-82738.313784
2051.853522,-7994.224174,2368.659014,-72932.291410
2051.856105,17320.819043,-29312.155303,-82891.532884
2051.858687,-23982.672521,15248.242405,-62206.954438
2051.861270,28275.866984,-25463.084405,-89633.173266
2051.863853,-23390.507767,1924.535449,-65118.117330
2051.866435,49889.880491,-16728.654289,-83964.066581
2051.869018,-36714.214723,19837.519246,-63739.145434
2051.871601,54775.239708,-17764.942608,-85343.038477
2051.874183,-43228.027013,29608.237680,-64505.240932
2051.876772,19541.436869,-38046.585419,-100205.291138
2051.879360,45892.768404,-14656.077652,-79827.150892
2051.881948,-34493.596897,19245.354492,-60215.106143
2051.884536,17764.942608,-14804.118840,-98979.538342
2051.887125,-4293.194464,21614.013506,-79367.493593
2051.889713,-38342.667796,-1184.329507,-79980.369991
2051.892301,9474.636058,-1036.288319,-69867.909418
2051.894890,1184.329507,-5181.441594,-79980.369991
2051.897478,-38342.667796,16136.489536,-68182.499322
2051.900066,30644.525999,-32717.102636,-90552.487864
2051.902655,-21317.931130,19541.436869,-71859.757712
2051.905243,13471.748144,-1628.453072,-75843.454302
2051.907831,-33013.185013,6661.853478,-77375.645298
2051.910420,24130.713709,3849.070898,-75383.797003
2051.913008,-11695.253884,3108.864956,-79980.369991
2051.915596,23390.507767,2220.617826,-74924.139704
2051.918185,-8586.388927,10510.924376,-80899.684589
2051.920773,1480.411884,-5181.441594,-74004.825107
2051.923361,-8882.471304,-592.164754,-86722.010374
2051.925950,-5773.606348,6957.935855,-66037.431928
2051.928538,14804.118840,5181.441594,-87641.324971
2051.931126,-20133.601622,33161.226202,-63739.145434
2051.933714,-4589.276840,-41155.450375,-100511.729338
2051.936303,46929.056723,-296.082377,-68488.937521
2051.938891,-55663.486838,-18209.066173,-83810.847481
2051.941479,22946.384202,-14804.118840,-83197.971083
2051.944068,19393.395680,-8734.430116,-80746.465489
2051.946656,-48409.468607,10510.924376,-74464.482406
2051.949244,74908.841330,-32272.979071,-84883.381178
2051.951833,-7994.224174,6809.894666,-68488.937521
2051.954421,-1332.370696,-4737.318029,-66037.431928
2051.957009,-22058.137072,-6809.894666,-87488.105872
2051.959598,18801.230927,-2516.700203,-75690.235202
2051.962186,-1480.411884,-2072.576638,-75077.358804
2051.964774,7994.224174,-8290.306550,-77988.521696
2051.967363,12287.418637,-12731.542202,-75537.016103
2051.969951,-16580.613101,-5625.565159,-76149.892501
2051.972539,7698.141797,-15840.407159,-83810.847481
2051.975128,-5625.565159,-4589.276840,-70940.443115
2051.977716,-5033.400406,-9918.759623,-78754.617194
2051.980308,-29312.155303,11695.253884,-65271.336430
2051.982901,61881.216751,-10955.047942,-79520.712692
2051.985494,-53442.869012,13767.830521,-77222.426198
2051.988086,49149.674549,-33309.267390,-104188.987728
2051.990679,-21614.013506,25167.002028,-67263.184724
2051.993271,-26795.455100,-8586.388927,-84730.162079
2051.995864,42635.862259,10955.047942,-66497.089226
2051.998457,-13767.830521,22502.260637,-48723.673673
2052.001049,-1184.329507,-11547.212695,-98366.661943
2052.003642,12731.542202,11991.336260,-77528.864398
2052.006234,-12879.583391,-6661.853478,-74311.263306
2052.008827,-39526.997303,4145.153275,-75690.235202
2052.011420,23834.631332,-24574.837274,-89326.735067
2052.014012,-23242.466579,16284.530724,-69714.690318
2052.016605,17468.860231,-22058.137072,-83964.066581
2052.019197,-22058.137072,19837.519246,-68182.499322
2052.021790,7846.182985,-7402.059420,-86262.353075
2052.024382,-30496.484810,16580.613101,-72012.976812
2052.026975,29016.072926,-12731.542202,-83504.409282
2052.029568,-32569.061448,23834.631332,-68488.937521
2052.032160,3108.864956,-2516.700203,-76456.330700
2052.034753,10214.842000,-1036.288319,-86568.791274
2052.037345,-13767.830521,3997.112087,-65730.993728
2052.039938,10510.924376,-740.205942,-78141.740796
2052.042531,-25463.084405,25759.166782,-60368.325242
2052.045123,6365.771101,-48409.468607,-95149.060852
2052.047716,31236.690752,-3552.988522,-77069.207099
2052.050308,-65434.205273,-15840.407159,-91931.459760
2052.052901,61141.010809,-32865.143825,-90399.268764
2052.055494,-18801.230927,592.164754,-85649.476676
2052.058086,-71503.893997,19985.560434,-68948.594820
2052.060679,57143.898722,-28275.866984,-88254.201370
2052.063271,10510.924376,-6069.688724,-82278.656485
2052.065864,8734.430116,6217.729913,-72932.291410
2052.068456,-1776.494261,-4589.276840,-80746.465489
2052.071049,27979.784608,-2960.823768,-69561.471218
2052.073642,-7846.182985,-2220.617826,-80593.246390
2052.076234,11843.295072,-1332.370696,-70174.347617
2052.078827,14952.160028,-13767.830521,-82738.313784
2052.081419,8290.306550,-2960.823768,-74924.139704
2052.084016,6809.894666,-18357.107362,-82891.532884
2052.086612,-7698.141797,-12731.542202,-75690.235202
2052.089208,12139.377449,-7994.224174,-81665.780087
2052.091804,-44412.356520,13767.830521,-64505.240932
2052.094400,50778.127621,-23390.507767,-84730.162079
2052.096996,-54183.074954,37306.379477,-68335.718422
2052.099592,36862.255912,-48113.386230,-113995.010102
2052.102188,-17320.819043,38046.585419,-57150.724151
2052.104784,-38490.708984,-15100.201217,-89479.954166
2052.107380,11991.336260,-15988.448347,-94076.527154
2052.109976,18801.230927,24870.919651,-61900.516238
2052.112572,-28719.990550,2664.741391,-80440.027290
2052.115168,27535.661042,1924.535449,-71246.881314
2052.117764,-6661.853478,9326.594869,-71400.100414
2052.120360,-13767.830521,4589.276840,-72932.291410
2052.122957,-7550.100608,-6957.935855,-86568.791274
2052.125553,-10807.006753,4441.235652,-75383.797003
2052.128149,-4737.318029,-11251.130318,-78907.836294
2052.130745,-27831.743419,19837.519246,-66650.308326
2052.133341,34197.514520,-10362.883188,-84883.381178
2052.135937,-9326.594869,592.164754,-81206.122788
2052.138533,-6513.812290,11103.089130,-72472.634111
2052.141129,-8290.306550,-4441.235652,-84270.504780
2052.143725,7550.100608,9918.759623,-71246.881314
2052.146321,-11103.089130,-7994.224174,-82585.094684
2052.148917,14656.077652,15840.407159,-74158.044206
2052.151513,-26647.413912,-11251.130318,-83657.628382
2052.154109,47669.262665,-23242.466579,-86568.791274
2052.156705,-39082.873738,13471.748144,-67876.061123
2052.159302,15100.201217,-24426.796086,-75383.797003
2052.161898,90601.207301,-38342.667796,-87028.448573
2052.164494,-52554.621882,31236.690752,-48876.892772
2052.167090,39971.120868,-40267.203245,-91625.021561
2052.169686,16728.654289,6957.935855,-68182.499322
2052.172282,1184.329507,-1036.288319,-76303.111601
2052.174878,-19689.478057,2220.617826,-77528.864398
2052.177474,37306.379477,-9918.759623,-76762.768900
2052.180070,-4145.153275,-2960.823768,-74770.920605
2052.182666,22354.219448,-296.082377,-73238.729609
2052.185262,7698.141797,-7698.141797,-80440.027290
2052.187860,4885.359217,-10510.924376,-74004.825107
2052.190457,-12139.377449,-12731.542202,-76915.987999
2052.193055,-3997.112087,-9326.594869,-82278.656485
2052.195653,14063.912898,-26203.290347,-81972.218286
2052.198250,-11399.171507,13915.871710,-63432.707234
2052.200848,10658.965565,-25018.960840,-85189.819378
2052.203446,-2664.741391,19689.478057,-66190.651027
2052.206043,-25907.207970,-13767.830521,-88100.982270
2052.208641,10510.924376,-10214.842000,-86722.010374
2052.211238,49741.839302,10362.883188,-65884.212828
2052.213836,-68543.070229,12879.583391,-66037.431928
2052.216434,57291.939911,-3404.947333,-84576.942979
2052.219031,-15248.242405,29904.320057,-79980.369991
2052.221629,-14063.912898,8734.430116,-77682.083497
2052.224226,14211.954086,-1332.370696,-76915.987999
2052.226824,-11991.336260,10658.965565,-65118.117330
2052.229422,-15692.365970,-7846.182985,-83964.066581
2052.232019,13619.789333,3552.988522,-76915.987999
2052.234617,-6513.812290,-2220.617826,-83964.066581
2052.237215,-48853.592172,23686.590144,-66650.308326
2052.239812,17320.819043,-14063.912898,-89786.392366
2052.242410,-34641.638086,25907.207970,-65118.117330
2052.245007,15692.365970,-17616.901420,-87334.886772
2052.247605,-21169.889941,21317.931130,-68795.375720
2052.250203,41007.409187,-9622.677246,-81052.903688
2052.252800,-28127.825796,16432.571912,-67263.184724
2052.255398,29756.278868,-22058.137072,-83197.971083
2052.257996,-32865.143825,23390.507767,-73545.167808
2052.260593,16136.489536,-38638.750172,-89479.954166
2052.263191,45004.521274,-44412.356520,-102963.234931
2052.265788,-26499.372724,26499.372724,-66497.089226
2052.268386,-9326.594869,-32569.061448,-87947.763170
2052.270984,36714.214723,-8290.306550,-68488.937521
2052.273581,-53442.869012,-2220.617826,-81972.218286
2052.276179,21317.931130,2220.617826,-70327.566716
2052.278776,15248.242405,-11991.336260,-87028.448573
2052.281374,-37602.461854,23242.466579,-61287.639840
2052.283972,41895.656317,-34937.720462,-88100.982270
2052.286569,-21169.889941,15396.283594,-71706.538613
2052.289167,20725.766376,-6217.729913,-75996.673402
2052.291769,-23242.466579,-148.041188,-81052.903688
2052.294368,33309.267390,-11843.295072,-71246.881314
2052.296967,8438.347739,-13619.789333,-82278.656485
2052.299565,14508.036463,-1480.411884,-71859.757712
2052.302164,2812.782580,-7254.018232,-83810.847481
2052.304763,11991.336260,-11843.295072,-74004.825107
2052.307361,-11103.089130,2960.823768,-76303.111601
2052.309960,-10214.842000,-3404.947333,-71706.538613
2052.312559,50482.045244,-35381.844028,-89326.735067
2052.315157,-36714.214723,54035.033766,-55771.752254
2052.317756,-19245.354492,-30644.525999,-92850.774358
2052.320355,27091.537477,9474.636058,-64198.802732
2052.322954,-40119.162056,-4293.194464,-79367.493593
2052.325552,-9770.718434,6069.688724,-74924.139704
2052.328151,45004.521274,-2516.700203,-79827.150892
2052.330750,-49297.715737,24870.919651,-63126.269035
2052.333348,48557.509795,-15100.201217,-78754.617194
2052.335947,-6217.729913,11695.253884,-68488.937521
2052.338546,-7846.182985,13619.789333,-63585.926334
2052.341144,-17468.860231,-7105.977043,-84576.942979
2052.343743,2368.659014,10510.924376,-72472.634111
2052.346342,-11695.253884,-1480.411884,-81359.341888
2052.348940,-2960.823768,5329.482782,-71093.662214
2052.351539,3256.906145,296.082377,-83504.409282
2052.354138,-28868.031738,5477.523971,-78448.178995
2052.356736,3552.988522,148.041188,-79061.055394
2052.359335,-28571.949361,0.000000,-75996.673402
2052.361934,17320.819043,-17764.942608,-90552.487864
2052.364533,-33013.185013,14359.995275,-66497.089226
2052.367131,47077.097911,-21910.095883,-84576.942979
2052.369730,-6809.894666,22946.384202,-65118.117330
2052.372329,-2220.617826,-32569.061448,-90246.049664
2052.374927,43228.027013,-7550.100608,-75537.016103
2052.377526,-32717.102636,-8438.347739,-62819.830836
2052.380125,40119.162056,-33309.267390,-105414.740525
2052.382723,1924.535449,23686.590144,-70174.347617
2052.385322,-33901.432144,-8586.388927,-87947.763170
2052.387921,49889.880491,-20281.642811,-76303.111601
2052.390519,26055.249158,-30348.443622,-93463.650756
2052.393118,-34937.720462,25759.166782,-60368.325242
2052.395717,15840.407159,-27683.702231,-84730.162079
2052.398316,-12139.377449,9326.594869,-67722.842023
2052.400914,28275.866984,-26351.331535,-93463.650756
2052.403513,-18357.107362,5625.565159,-66497.089226
2052.406112,34493.596897,-26795.455100,-81818.999186
2052.408711,-26943.496289,11547.212695,-71553.319513
2052.411310,32421.020260,-27239.578666,-85955.914876
2052.413908,-2960.823768,9178.553681,-63892.364533
2052.416507,11843.295072,2516.700203,-70787.224015
2052.419106,14359.995275,-1628.453072,-83044.751983
2052.421705,-38638.750172,7994.224174,-72166.195912
2052.424303,27535.661042,-20725.766376,-99592.414740
2052.426902,-29904.320057,34493.596897,-68029.280222
2052.429501,-25018.960840,-12583.501014,-81665.780087
2052.432100,31088.649564,13767.830521,-65271.336430
2052.434699,-37602.461854,10658.965565,-75077.358804
2052.437297,-7698.141797,-7402.059420,-82738.313784
2052.439896,46632.974346,-19689.478057,-79827.150892
2052.442495,-31680.814318,11695.253884,-68795.375720
2052.445094,3849.070898,-9178.553681,-82431.875585
2052.447692,6957.935855,148.041188,-74924.139704
2052.450291,20429.683999,1776.494261,-75996.673402
2052.452890,-17616.901420,1036.288319,-79367.493593
2052.455489,22502.260637,7402.059420,-69714.690318
2052.458088,-25167.002028,1036.288319,-83657.628382
2052.460686,12287.418637,2220.617826,-74004.825107
2052.463285,-16876.695478,11991.336260,-81972.218286
2052.465884,-17616.901420,-2664.741391,-78448.178995
2052.468483,24870.919651,-15248.242405,-85496.257577
2052.471081,-41895.656317,10214.842000,-72012.976812
2052.473680,32272.979071,-11695.253884,-81818.999186
2052.476279,-48409.468607,32124.937883,-55465.314055
2052.478878,33901.432144,-68098.946664,-102963.234931
2052.481477,-5181.441594,18949.272115,-68948.594820
2052.484075,-29312.155303,-34049.473332,-103422.892230
2052.486674,48113.386230,-17320.819043,-79367.493593
2052.489273,9030.512492,-4885.359217,-81052.903688
2052.491872,-49149.674549,148.041188,-84576.942979
2052.494470,43524.109390,-18209.066173,-76915.987999
2052.497069,8142.265362,-12139.377449,-88867.077768
2052.499632,4293.194464,7550.100608,-65271.336430
2052.502196,888.247130,-8882.471304,-86415.572174
2052.504759,7105.977043,4145.153275,-79061.055394
2052.507322,-5329.482782,-7550.100608,-77528.864398
2052.509885,1776.494261,-10510.924376,-72625.853210
2052.512449,-740.205942,-15840.407159,-77375.645298
2052.515012,-8142.265362,-1036.288319,-73391.948708
2052.517575,33457.308578,-34789.679274,-87334.886772
2052.520138,1184.329507,14063.912898,-65884.212828
2052.522702,3404.947333,-9030.512492,-79061.055394
2052.525265,2812.782580,3404.947333,-71553.319513
2052.527828,1776.494261,6661.853478,-71246.881314
2052.530391,0.000000,-24426.796086,-97140.909146
2052.532955,26795.455100,27683.702231,-60827.982541
2052.535518,-29164.114115,148.041188,-70940.443115
2052.538081,38786.791361,11991.336260,-68795.375720
2052.540644,-31532.773129,11843.295072,-71706.538613
2052.543208,-39675.038491,15840.407159,-62206.954438
2052.545771,17468.860231,-23834.631332,-85496.257577
2052.548334,-14063.912898,13175.665768,-71706.538613
2052.550897,-1036.288319,-17616.901420,-83964.066581
2052.553460,-26795.455100,10807.006753,-76456.330700
2052.556024,31236.690752,-9622.677246,-80286.808190
2052.558587,-29756.278868,9030.512492,-73085.510509
2052.561150,14211.954086,-2812.782580,-79214.274493
2052.563713,3997.112087,3997.112087,-79367.493593
2052.566277,3849.070898,9326.594869,-69408.252119
2052.568840,-3256.906145,-6069.688724,-84423.723880
2052.571403,-14508.036463,7698.141797,-72472.634111
2052.573966,-3701.029710,-16136.489536,-83504.409282
2052.576530,-26351.331535,18949.272115,-76915.987999
2052.579093,6365.771101,-39675.038491,-95915.156350
2052.581656,30792.567187,-8734.430116,-73545.167808
2052.584219,-12139.377449,-2220.617826,-69867.909418
2052.586783,19097.313304,-1036.288319,-63279.488135
2052.589346,13471.748144,-9030.512492,-75383.797003
2052.591909,-69579.358548,14508.036463,-68642.156621
2052.594472,42783.903448,-11843.295072,-78754.617194
2052.597036,14211.954086,5773.606348,-81359.341888
2052.599599,592.164754,11103.089130,-67722.842023
2052.602168,1924.535449,-8290.306550,-83044.751983
2052.604738,18505.148550,1776.494261,-71553.319513
2052.607308,-19985.560434,0.000000,-79214.274493
2052.609877,14211.954086,-7550.100608,-77988.521696
2052.612447,10362.883188,-9178.553681,-81359.341888
2052.615017,-148.041188,-3404.947333,-69408.252119
2052.617586,9622.677246,-4145.153275,-83044.751983
2052.620156,-9770.718434,148.041188,-68642.156621
2052.622726,12731.542202,-10362.883188,-81972.218286
2052.625295,-30792.567187,9474.636058,-62819.830836
2052.627865,39823.079680,-11991.336260,-79214.274493
2052.630435,-58476.269418,4589.276840,-76915.987999
2052.633004,71059.770432,-34345.555709,-101277.824836
2052.635574,-33457.308578,41155.450375,-55465.314055
2052.638144,3552.988522,-24722.878463,-99285.976541
2052.640713,3552.988522,22798.343014,-61134.420740
2052.643283,-14804.118840,29460.196492,-56691.066852
2052.645853,-10066.800811,-11251.130318,-92850.774358
2052.648422,20873.807564,2072.576638,-73238.729609
2052.650992,-10214.842000,-2072.576638,-77682.083497
2052.653561,-17616.901420,-2220.617826,-74770.920605
2052.656131,296.082377,-10066.800811,-85649.476676
2052.658701,-27387.619854,8290.306550,-73698.386908
2052.661270,5625.565159,-15988.448347,-80899.684589
2052.663840,-18061.024985,18209.066173,-70787.224015
2052.666410,10214.842000,-9770.718434,-85189.819378
2052.668979,-29312.155303,13027.624579,-74770.920605
2052.671549,32569.061448,1628.453072,-74617.701505
2052.674119,-22798.343014,15988.448347,-67569.622924
2052.676688,23094.425390,-3701.029710,-74158.044206
2052.679258,-32865.143825,14359.995275,-74924.139704
2052.681828,43376.068201,-31680.814318,-90858.926063
2052.684397,10955.047942,13027.624579,-74464.482406
2052.686967,-10066.800811,-5181.441594,-61287.639840
2052.689537,36418.132346,-12879.583391,-89326.735067
2052.692106,-15988.448347,4737.318029,-53473.465760
2052.694676,-31976.896694,-18949.272115,-88254.201370
2052.697246,50630.086433,-3404.947333,-61900.516238
2052.699815,5181.441594,-14508.036463,-76762.768900
2052.702385,-45152.562462,12583.501014,-70480.785816
2052.704960,45596.686027,-29608.237680,-88407.420469
2052.707535,-32865.143825,21021.848753,-64505.240932
2052.710110,17172.777854,-23094.425390,-88407.420469
2052.712684,-1332.370696,6069.688724,-67263.184724
2052.715259,38046.585419,-22502.260637,-86722.010374
2052.717834,-15248.242405,-4589.276840,-71553.319513
2052.720409,12435.459826,-5329.482782,-77069.207099
2052.722984,6069.688724,-12731.542202,-80440.027290
2052.725559,-4589.276840,10362.883188,-63892.364533
2052.728134,-4737.318029,-9918.759623,-80746.465489
2052.730709,17320.819043,11991.336260,-70021.128517
2052.733284,-39823.079680,-13915.871710,-85649.476676
2052.735858,29608.237680,-14211.954086,-90246.049664
2052.738433,-30052.361245,23094.425390,-74311.263306
2052.741008,-19985.560434,-12435.459826,-85649.476676
2052.743583,18061.024985,2072.576638,-77528.864398
2052.746158,-39526.997303,35825.967593,-66190.651027
2052.748733,11695.253884,-17320.819043,-97140.909146
2052.751308,18357.107362,-592.164754,-64505.240932
2052.753883,9622.677246,-6809.894666,-77222.426198
2052.756458,-28868.031738,2960.823768,-77835.302597
2052.759032,25018.960840,-3108.864956,-75690.235202
2052.761607,-8734.430116,592.164754,-78907.836294
2052.764182,13175.665768,3404.947333,-68795.375720
2052.766757,2072.576638,5773.606348,-79980.369991
2052.769332,-21614.013506,11843.295072,-77222.426198
2052.771907,-19393.395680,-2960.823768,-84730.162079
2052.774482,-6661.853478,6365.771101,-70634.004916
2052.777057,-2368.659014,-592.164754,-77528.864398
2052.779632,-17616.901420,148.041188,-78907.836294
2052.782206,10510.924376,-2960.823768,-87641.324971
2052.784781,-24870.919651,-12435.459826,-81052.903688
2052.787356,64101.834577,-24130.713709,-83351.190182
2052.789931,-63509.669824,31384.731941,-50255.864669
2052.792506,73280.388258,-33901.432144,-84270.504780
2052.795081,43820.191766,-6809.894666,-70480.785816
2052.797656,-1036.288319,-888.247130,-60215.106143
2052.800231,12435.459826,-1628.453072,-87181.667672
2052.802806,6365.771101,13915.871710,-75077.358804
2052.805380,-19837.519246,-4737.318029,-78294.959896
2052.807959,12139.377449,-4737.318029,-72319.415011
2052.810537,5773.606348,-7698.141797,-85955.914876
2052.813115,-7550.100608,12435.459826,-65118.117330
2052.815693,13175.665768,-26499.372724,-85496.257577
2052.818271,-2516.700203,-3404.947333,-75230.577904
2052.820849,17172.777854,-20577.725188,-85343.038477
2052.823427,-23094.425390,10807.006753,-64198.802732
2052.826005,26203.290347,-33901.432144,-90399.268764
2052.828583,-3552.988522,6661.853478,-70480.785816
2052.831161,18061.024985,-9918.759623,-78907.836294
2052.833739,20281.642811,-7698.141797,-80593.246390
2052.836317,3997.112087,28571.949361,-62513.392637
2052.838895,-24130.713709,-22206.178260,-87794.544071
2052.841473,31236.690752,20133.601622,-63892.364533
2052.844051,-49149.674549,11695.253884,-68488.937521
2052.846629,-12435.459826,-9770.718434,-91012.145162
2052.849207,25907.207970,2072.576638,-69101.813920
2052.851785,-28127.825796,10807.006753,-68182.499322
2052.854363,5329.482782,-27387.619854,-83964.066581
2052.856941,-16580.613101,10658.965565,-66037.431928
2052.859519,1036.288319,-14063.912898,-84117.285680
2052.862097,-21762.054695,6661.853478,-71246.881314
2052.864675,19837.519246,-17320.819043,-85343.038477
2052.867253,-36122.049970,20725.766376,-72932.291410
2052.869831,6661.853478,1628.453072,-78601.398095
2052.872409,-8438.347739,1332.370696,-81512.560987
2052.874987,10362.883188,18653.189738,-65884.212828
2052.877565,-13471.748144,-4145.153275,-83504.409282
2052.880143,31532.773129,5773.606348,-67263.184724
2052.882721,-23686.590144,3701.029710,-78601.398095
2052.885299,25167.002028,-740.205942,-75077.358804
2052.887877,-23686.590144,18949.272115,-64811.679131
2052.890455,2812.782580,-40711.326810,-87334.886772
2052.893033,21910.095883,-3701.029710,-79214.274493
2052.895611,-41155.450375,24278.754898,-59908.667944
2052.898189,9474.636058,-42783.903448,-94536.184453
2052.900767,19097.313304,9030.512492,-66956.746525
2052.903345,-21465.972318,-11843.295072,-90552.487864
2052.905923,-11251.130318,9474.636058,-68182.499322
2052.908501,44560.397708,-29904.320057,-92697.555258
2052.911082,-23538.548956,18209.066173,-62513.392637
2052.913663,32124.937883,-19245.354492,-85802.695776
2052.916244,9030.512492,-1036.288319,-75690.235202
2052.918825,21021.848753,-8734.430116,-72012.976812
2052.921406,-19097.313304,-5477.523971,-76149.892501
2052.923986,17320.819043,-9622.677246,-77222.426198
2052.926567,-4145.153275,-16284.530724,-81052.903688
2052.929148,1924.535449,-296.082377,-73545.167808
2052.931729,3849.070898,-13915.871710,-80133.589091
2052.934310,2960.823768,8142.265362,-73698.386908
2052.936891,-25907.207970,-10362.883188,-85189.819378
2052.939472,-3552.988522,-17024.736666,-91471.802461
2052.942053,-2220.617826,14211.954086,-79367.493593
2052.944634,-34345.555709,5181.441594,-69714.690318
2052.947215,52110.498317,-15248.242405,-88100.982270
2052.949796,-7994.224174,28719.990550,-63585.926334
2052.952376,-592.164754,1628.453072,-72472.634111
2052.954957,2960.823768,-6513.812290,-74924.139704
2052.957538,13619.789333,6809.894666,-70327.566716
2052.960119,-21762.054695,2368.659014,-79061.055394
2052.962700,17172.777854,3108.864956,-72166.195912
2052.965281,-6365.771101,-3997.112087,-84730.162079
2052.967862,444.123565,5033.400406,-71859.757712
2052.970443,-5033.400406,4145.153275,-81512.560987
2052.973024,-32421.020260,19689.478057,-73238.729609
2052.975605,33161.226202,-6365.771101,-80133.589091
2052.978185,-22206.178260,13027.624579,-66343.870127
2052.980766,38046.585419,-8882.471304,-83197.971083
2052.983347,-34937.720462,18209.066173,-69561.471218
2052.985928,34049.473332,-33605.349767,-89173.515967
2052.988509,4885.359217,16728.654289,-68488.937521
2052.991090,-10066.800811,-5625.565159,-64658.460031
2052.993639,42635.862259,-14359.995275,-85649.476676
2052.996189,8142.265362,11399.171507,-58376.476948
2052.998738,-8290.306550,-6661.853478,-84883.381178
2053.001287,38934.832549,148.041188,-69561.471218
2053.003837,-9474.636058,-11695.253884,-80286.808190
2053.006386,-41895.656317,9622.677246,-71859.757712
2053.008936,43376.068201,-31828.855506,-85036.600278
2053.011485,-19541.436869,21910.095883,-62360.173537
2053.014034,20281.642811,-24278.754898,-89326.735067
2053.016584,-4589.276840,7402.059420,-65271.336430
2053.019133,24722.878463,-26795.455100,-84423.723880
2053.021682,-25759.166782,3997.112087,-70480.785816
2053.024232,41747.615129,-10510.924376,-72625.853210
2053.026781,-8142.265362,-4885.359217,-80899.684589
2053.029330,16728.654289,-10955.047942,-81052.903688
2053.031880,-8882.471304,-1036.288319,-83044.751983
2053.034429,20725.766376,-17024.736666,-73391.948708
2053.036978,-23538.548956,33309.267390,-67263.184724
2053.039528,-37454.420665,7105.977043,-65730.993728
2053.042077,36566.173535,-15396.283594,-83504.409282
2053.044627,-40859.367998,25018.960840,-72319.415011
2053.047176,8882.471304,-17764.942608,-95149.060852
2053.049725,-4441.235652,15544.324782,-63126.269035
2053.052275,21317.931130,-23094.425390,-91778.240660
2053.054824,-34493.596897,5477.523971,-72932.291410
2053.057373,34641.638086,-11843.295072,-75996.673402
2053.059923,-9326.594869,9178.553681,-68642.156621
2053.062472,16876.695478,-740.205942,-79673.931792
2053.065021,-7254.018232,-2812.782580,-81818.999186
2053.067571,14656.077652,7698.141797,-65424.555529
2053.070120,-23538.548956,1480.411884,-82891.532884
2053.072670,3256.906145,9474.636058,-72472.634111
2053.075219,2220.617826,-17912.983796,-87794.544071
2053.077768,-12731.542202,7402.059420,-79367.493593
2053.080318,11103.089130,-21910.095883,-87641.324971
2053.082867,-16284.530724,23538.548956,-70174.347617
2053.085416,-9030.512492,-28423.908173,-87794.544071
2053.087966,13323.706956,-15988.448347,-76456.330700
2053.090515,-2960.823768,-3552.988522,-75230.577904
2053.093064,-15248.242405,-7994.224174,-68948.594820
2053.095622,69875.440925,-16580.613101,-70021.128517
2053.098179,-43968.232955,19393.395680,-56844.285952
2053.100736,3108.864956,-8586.388927,-85955.914876
2053.103293,26647.413912,-1332.370696,-74004.825107
2053.105850,-9474.636058,18357.107362,-58070.038748
2053.108407,-4293.194464,-16432.571912,-89173.515967
2053.110964,24574.837274,3404.947333,-71859.757712
2053.113522,-6809.894666,-1036.288319,-83197.971083
2053.116079,2368.659014,-11991.336260,-77835.302597
2053.118636,6365.771101,-10510.924376,-76456.330700
2053.121193,-15692.365970,-4885.359217,-75383.797003
2053.123750,13915.871710,-21317.931130,-79520.712692
2053.126307,-1184.329507,12287.418637,-64964.898230
2053.128864,19097.313304,-16284.530724,-82278.656485
2053.131422,-1480.411884,9770.718434,-70787.224015
2053.133979,1184.329507,-2812.782580,-80133.589091
2053.136536,-9178.553681,-17912.983796,-91625.021561
2053.139093,13323.706956,25759.166782,-65730.993728
2053.141650,-21169.889941,-740.205942,-79673.931792
2053.144207,35677.926404,7994.224174,-69561.471218
2053.146764,-22058.137072,18653.189738,-72319.415011
2053.149322,10510.924376,-3108.864956,-68029.280222
2053.151879,1924.535449,-20873.807564,-83657.628382
2053.154436,-18949.272115,6513.812290,-75690.235202
2053.156993,2220.617826,-14508.036463,-83044.751983
2053.159550,-15544.324782,5181.441594,-73085.510509
2053.162107,8734.430116,-17172.777854,-84883.381178
2053.164665,-28275.866984,12879.583391,-75230.577904
2053.167222,12287.418637,-11103.089130,-83657.628382
2053.169779,-40267.203245,23538.548956,-69714.690318
2053.172336,20133.601622,-8882.471304,-86568.791274
2053.174893,-24870.919651,17024.736666,-75383.797003
2053.177450,33309.267390,-5773.606348,-75996.673402
2053.180007,-29164.114115,16432.571912,-83810.847481
2053.182565,20725.766376,-31828.855506,-85955.914876
2053.185122,23834.631332,-4737.318029,-78294.959896
2053.187679,-18653.189738,14359.995275,-48723.673673
2053.190236,43672.150578,-17764.942608,-82278.656485
2053.192793,-1036.288319,19985.560434,-65577.774629
2053.195350,-44412.356520,-7402.059420,-87947.763170
2053.197914,45300.603650,-8142.265362,-74004.825107
2053.200478,18653.189738,-15100.201217,-86262.353075
2053.203041,-43820.191766,19837.519246,-60981.201641
2053.205605,45300.603650,-30940.608376,-85496.257577
2053.208168,-13619.789333,14804.118840,-68335.718422
2053.210732,19689.478057,-12435.459826,-85802.695776
2053.213296,7994.224174,-4293.194464,-72932.291410
2053.215859,30792.567187,-15840.407159,-75230.577904
2053.218423,-24574.837274,1184.329507,-71706.538613
2053.220986,44116.274143,-20281.642811,-77528.864398
2053.223550,-5921.647536,6513.812290,-70940.443115
2053.226114,-7994.224174,148.041188,-68795.375720
2053.228677,18357.107362,-7994.224174,-82891.532884
2053.231241,-38786.791361,2368.659014,-77988.521696
2053.233805,15988.448347,-31236.690752,-103116.454031
2053.236368,-34789.679274,34345.555709,-65577.774629
2053.238932,-13619.789333,-17172.777854,-86722.010374
2053.241495,4589.276840,25463.084405,-62819.830836
2053.244059,1332.370696,-5477.523971,-83504.409282
2053.246623,-37158.338288,8142.265362,-74924.139704
2053.249186,35825.967593,-23982.672521,-85189.819378
2053.251750,-7105.977043,3849.070898,-75383.797003
2053.254314,-148.041188,6513.812290,-65577.774629
2053.256877,-7550.100608,-5033.400406,-90705.706963
2053.259441,17912.983796,10658.965565,-66190.651027
2053.262004,-12287.418637,-2664.741391,-86262.353075
2053.264568,740.205942,8882.471304,-75996.673402
2053.267132,-23982.672521,10510.924376,-84730.162079
2053.269695,4737.318029,2664.741391,-74004.825107
2053.272259,-13027.624579,7550.100608,-75690.235202
2053.274823,2368.659014,740.205942,-73085.510509
2053.277386,19097.313304,1628.453072,-82585.094684
2053.279950,-37750.503042,-3849.070898,-79827.150892
2053.282513,72392.141128,-40267.203245,-88713.858668
2053.285077,-58920.392983,34493.596897,-50102.645569
2053.287641,59364.516548,-36566.173535,-85343.038477
2053.290204,-5329.482782,22502.260637,-55312.094956
2053.292768,-9030.512492,-11547.212695,-89786.392366
2053.295332,34641.638086,4145.153275,-67569.622924
2053.297895,18505.148550,-2220.617826,-71706.538613
2053.300466,-21465.972318,-2072.576638,-77528.864398
2053.303035,5181.441594,-7254.018232,-78448.178995
2053.305605,11103.089130,-12435.459826,-86875.229473
2053.308174,-11991.336260,3552.988522,-68948.594820
2053.310743,17468.860231,-29460.196492,-87028.448573
2053.313312,-3552.988522,4737.318029,-67722.842023
2053.315881,-3256.906145,-20429.683999,-81052.903688
2053.318450,-9474.636058,-8882.471304,-72012.976812
2053.321019,22798.343014,-8290.306550,-80593.246390
2053.323588,-39230.914926,12139.377449,-64352.021832
2053.326158,58624.310606,-25315.043216,-86875.229473
2053.328727,-22058.137072,41599.573940,-57916.819649
2053.331296,1480.411884,-17172.777854,-80899.684589
2053.333865,5625.565159,8290.306550,-76303.111601
2053.336434,-10510.924376,15100.201217,-59908.667944
2053.339003,-148.041188,-10658.965565,-94689.403553
2053.341572,18061.024985,27535.661042,-60981.201641
2053.344141,-17912.983796,-296.082377,-79214.274493
2053.346710,10807.006753,-296.082377,-67722.842023
2053.349280,-6365.771101,-148.041188,-82738.313784
2053.351849,-37750.503042,19689.478057,-69867.909418
2053.354418,15248.242405,-23538.548956,-87028.448573
2053.356987,-24426.796086,18061.024985,-69101.813920
2053.359556,22946.384202,-10510.924376,-85802.695776
2053.362125,-34197.514520,24574.837274,-66650.308326
2053.364694,22206.178260,296.082377,-85343.038477
2053.367263,-27535.661042,8734.430116,-72012.976812
2053.369833,31976.896694,-12435.459826,-82891.532884
2053.372402,-29608.237680,9918.759623,-71859.757712
2053.374971,51518.333563,2072.576638,-76609.549800
2053.377540,-11547.212695,13175.665768,-70940.443115
2053.380109,-3256.906145,-34493.596897,-84883.381178
2053.382678,23242.466579,-8438.347739,-82585.094684
2053.385247,-41895.656317,-9918.759623,-65577.774629
2053.387816,40415.244433,-33457.308578,-94995.841752
2053.390386,21762.054695,11103.089130,-63279.488135
2053.392955,1184.329507,-10955.047942,-84117.285680
2053.395524,-21762.054695,6957.935855,-75230.577904
2053.398093,44116.274143,-20873.807564,-89633.173266
2053.400662,-21021.848753,13619.789333,-62666.611736
2053.403235,8438.347739,2812.782580,-67416.403824
2053.405807,15396.283594,-15100.201217,-83197.971083
2053.408380,7254.018232,1480.411884,-67109.965625
2053.410952,-7846.182985,-6069.688724,-79520.712692
2053.413525,16728.654289,-17912.983796,-76456.330700
2053.416098,-7698.141797,3997.112087,-75690.235202
2053.418670,-23834.631332,-7105.977043,-72779.072310
2053.421243,20281.642811,-13175.665768,-83657.628382
2053.423815,-43228.027013,6069.688724,-76149.892501
2053.426388,25759.166782,-38490.708984,-100971.386636
2053.428961,-10955.047942,27091.537477,-64352.021832
2053.431533,-6809.894666,-1332.370696,-72625.853210
2053.434106,-2960.823768,2516.700203,-79827.150892
2053.436678,23834.631332,17320.819043,-63279.488135
2053.439251,-22206.178260,-1628.453072,-75077.358804
2053.441824,29016.072926,-1184.329507,-75077.358804
2053.444396,-2664.741391,2516.700203,-85496.257577
2053.446969,296.082377,12583.501014,-61287.639840
2053.449541,-12879.583391,-7698.141797,-90858.926063
2053.452114,-19837.519246,13027.624579,-70634.004916
2053.454687,3404.947333,-11251.130318,-83964.066581
2053.457259,-28571.949361,16728.654289,-75077.358804
2053.459832,21169.889941,0.000000,-85036.600278
2053.462405,-33901.432144,11103.089130,-70327.566716
2053.464977,30644.525999,-14804.118840,-85802.695776
2053.467550,-47373.180288,17912.983796,-65577.774629
2053.470122,46188.850781,-13619.789333,-80440.027290
2053.472695,-37750.503042,28275.866984,-55158.875856
2053.475268,57884.104664,-64990.081708,-102963.234931
2053.477840,43228.027013,-15248.242405,-85189.819378
2053.480413,-11695.253884,-3849.070898,-58989.353346
2053.482985,17468.860231,-28719.990550,-99132.757441
2053.485558,-17320.819043,15692.365970,-79520.712692
2053.488131,-17912.983796,-12731.542202,-87028.448573
2053.490703,25611.125593,-13915.871710,-77682.083497
2053.493276,2368.659014,-6661.853478,-78754.617194
2053.495848,-9474.636058,3552.988522,-73391.948708
2053.498421,12139.377449,-18061.024985,-78601.398095
2053.500994,-21021.848753,0.000000,-74924.139704
2053.503566,25759.166782,-19097.313304,-85343.038477
2053.506142,-4441.235652,-3404.947333,-72932.291410
2053.508717,45004.521274,-29608.237680,-79061.055394
2053.511293,-7698.141797,8882.471304,-74924.139704
2053.513868,12583.501014,-6513.812290,-71093.662214
2053.516444,4885.359217,-444.123565,-77528.864398
2053.519019,-10510.924376,5033.400406,-71553.319513
2053.521595,6365.771101,-22354.219448,-102810.015832
2053.524170,10066.800811,41155.450375,-56537.847752
2053.526746,-23686.590144,9474.636058,-73238.729609
2053.529321,-5921.647536,-3552.988522,-79827.150892
2053.531897,6661.853478,3108.864956,-69561.471218
2053.534472,-45004.521274,18505.148550,-68029.280222
2053.537047,23390.507767,-35381.844028,-87947.763170
2053.539623,-8734.430116,16284.530724,-68642.156621
2053.542198,10362.883188,-10362.883188,-81818.999186
2053.544774,-23390.507767,6069.688724,-75077.358804
2053.547349,23390.507767,-10066.800811,-79214.274493
2053.549925,-36566.173535,14656.077652,-74004.825107
2053.552500,-4293.194464,13175.665768,-69714.690318
2053.555076,1480.411884,13915.871710,-80440.027290
2053.557651,9622.677246,10658.965565,-68948.594820
2053.560227,2812.782580,592.164754,-77222.426198
2053.562802,-23982.672521,11991.336260,-70174.347617
2053.565378,7254.018232,-10955.047942,-82278.656485
2053.567953,-12731.542202,13767.830521,-65424.555529
2053.570529,-2516.700203,-35233.802839,-87028.448573
2053.573104,26203.290347,-7105.977043,-78601.398095
2053.575680,-10510.924376,-26351.331535,-79520.712692
2053.578255,-42931.944636,4589.276840,-74004.825107
2053.580831,56847.816346,-20577.725188,-84576.942979
2053.583406,-38638.750172,9918.759623,-67569.622924
2053.585982,17912.983796,-20577.725188,-89939.611465
2053.588557,15396.283594,-8882.471304,-78141.740796
2053.591133,25907.207970,-1628.453072,-66803.527426
2053.593708,2960.823768,-8438.347739,-83044.751983
2053.596284,25759.166782,-2812.782580,-70021.128517
2053.598859,-8734.430116,-6957.935855,-74770.920605
2053.601435,12731.542202,-3701.029710,-68642.156621
2053.604010,-592.164754,-21021.848753,-85189.819378
2053.606586,-2516.700203,-8290.306550,-82891.532884
2053.609163,9770.718434,-18357.107362,-85036.600278
2053.611741,5477.523971,-6809.894666,-76609.549800
2053.614319,-6661.853478,22354.219448,-68795.375720
2053.616897,-52406.580694,4145.153275,-70787.224015
2053.619475,49297.715737,-14063.912898,-86262.353075
2053.622053,-55959.569215,42043.697506,-61594.078039
2053.624631,36714.214723,-24278.754898,-98366.661943
2053.627208,-12139.377449,32124.937883,-50255.864669
2053.629786,16580.613101,7994.224174,-68795.375720
2053.632364,-25611.125593,-1628.453072,-79673.931792
2053.634942,8882.471304,3404.947333,-74158.044206
2053.637520,-5773.606348,2368.659014,-78141.740796
2053.640098,-6069.688724,8290.306550,-70480.785816
2053.642676,2812.782580,-9326.594869,-89633.173266
2053.645254,-17320.819043,13915.871710,-70021.128517
2053.647831,-18653.189738,1924.535449,-83351.190182
2053.650409,-15100.201217,7698.141797,-77682.083497
2053.652987,888.247130,-12287.418637,-84730.162079
2053.655565,-17024.736666,4589.276840,-76456.330700
2053.658143,37602.461854,2220.617826,-81052.903688
2053.660721,-30792.567187,-3108.864956,-71859.757712
2053.663299,62621.422693,-34789.679274,-87028.448573
2053.665876,-28423.908173,17616.901420,-62360.173537
2053.668454,20429.683999,-22354.219448,-76303.111601
2053.671032,28719.990550,2516.700203,-66956.746525
2053.673610,10510.924376,2516.700203,-68182.499322
2053.676188,1184.329507,-888.247130,-85955.914876
2053.678766,5033.400406,2368.659014,-71553.319513
2053.681344,-3997.112087,-10658.965565,-80133.589091
2053.683921,-17468.860231,7254.018232,-69255.033019
2053.686499,22354.219448,-20725.766376,-81206.122788
2053.689077,-21021.848753,5033.400406,-73851.606007
2053.691655,26351.331535,-29904.320057,-87488.105872
2053.694233,-13619.789333,6957.935855,-69101.813920
2053.696811,30496.484810,-34641.638086,-87794.544071
2053.699389,-26943.496289,25167.002028,-58836.134246
2053.701966,33013.185013,-21614.013506,-82585.094684
2053.704544,12435.459826,-1332.370696,-79827.150892
2053.707122,-9178.553681,11991.336260,-68335.718422
2053.709700,6365.771101,-22058.137072,-105721.178724
2053.712280,-11251.130318,35085.761651,-63739.145434
2053.714859,-29756.278868,-888.247130,-83964.066581
2053.717439,9474.636058,10066.800811,-70634.004916
2053.720018,-9622.677246,5181.441594,-72319.415011
2053.722598,-17912.983796,-4441.235652,-79520.712692
2053.725178,15396.283594,-21614.013506,-87794.544071
2053.727757,-19541.436869,12287.418637,-71246.881314
2053.730337,6365.771101,-3256.906145,-78907.836294
2053.732916,-21762.054695,5773.606348,-74770.920605
2053.735496,27239.578666,-10066.800811,-75537.016103
2053.738076,-22650.301825,15396.283594,-73391.948708
2053.740655,15248.242405,7402.059420,-81818.999186
2053.743235,-740.205942,6957.935855,-79520.712692
2053.745815,13471.748144,13175.665768,-66190.651027
2053.748394,-13767.830521,740.205942,-81972.218286
2053.750974,-9030.512492,17172.777854,-63126.269035
