#time,accel_x,accel_y,accel_z
276.705626,1332.370696,-2516.700203,-76762.768900
276.708202,888.247130,-2664.741391,-76915.987999
276.710777,1924.535449,-3108.864956,-76762.768900
276.713353,444.123565,-2812.782580,-76915.987999
276.715928,1184.329507,-2072.576638,-76456.330700
276.718503,2220.617826,-1924.535449,-76762.768900
276.721079,1480.411884,-3552.988522,-77069.207099
276.723654,444.123565,-1924.535449,-76456.330700
276.726230,1628.453072,-1036.288319,-76456.330700
276.728805,1332.370696,-2072.576638,-76456.330700
276.731380,2960.823768,-1184.329507,-75230.577904
276.733956,1480.411884,-3552.988522,-77069.207099
276.736531,2220.617826,-2516.700203,-76303.111601
276.739106,148.041188,-2368.659014,-76456.330700
276.741682,1184.329507,-1480.411884,-76456.330700
276.744257,3256.906145,-2960.823768,-77069.207099
276.746833,444.123565,-3849.070898,-78294.959896
276.749408,1184.329507,-3701.029710,-77375.645298
276.751983,1036.288319,-592.164754,-75690.235202
276.754559,740.205942,-7254.018232,-77988.521696
276.757134,2368.659014,-9178.553681,-77528.864398
276.759693,-1776.494261,-2664.741391,-74004.825107
276.762253,5921.647536,-4737.318029,-73698.386908
276.764812,3108.864956,-5033.400406,-75690.235202
276.767372,-4589.276840,-7254.018232,-79214.274493
276.769931,6069.688724,-4145.153275,-78141.740796
276.772491,2072.576638,-4885.359217,-75996.673402
276.775050,6809.894666,-13175.665768,-76762.768900
276.777609,-4293.194464,-9030.512492,-74924.139704
276.780169,-4737.318029,-2664.741391,-77528.864398
276.782728,10955.047942,2960.823768,-73698.386908
276.785288,-10362.883188,-8734.430116,-80593.246390
276.787847,7846.182985,10066.800811,-77528.864398
276.790407,7550.100608,10510.924376,-74924.139704
276.792966,-13175.665768,-13175.665768,-81206.122788
276.795526,17024.736666,444.123565,-73391.948708
276.798085,-5773.606348,4885.359217,-74924.139704
276.800645,-11251.130318,740.205942,-84423.723880
276.803204,7105.977043,-1480.411884,-78448.178995
276.805763,6217.729913,-2072.576638,-72472.634111
276.808323,-3849.070898,-6513.812290,-77069.207099
276.810882,2664.741391,1776.494261,-74158.044206
276.813442,3404.947333,-1480.411884,-76915.987999
276.816001,-2812.782580,1480.411884,-78754.617194
276.818561,3108.864956,4145.153275,-76303.111601
276.821120,592.164754,-3849.070898,-77988.521696
276.823680,-148.041188,-5773.606348,-76609.549800
276.826239,2812.782580,-592.164754,-76609.549800
276.828798,592.164754,2812.782580,-77528.864398
276.831358,4293.194464,2220.617826,-76762.768900
276.833917,0.000000,5477.523971,-75537.016103
276.836477,-444.123565,3256.906145,-78754.617194
276.839036,1924.535449,-1332.370696,-77375.645298
276.841596,1332.370696,-5181.441594,-76456.330700
276.844155,740.205942,-6217.729913,-77988.521696
276.846715,-296.082377,7994.224174,-77375.645298
276.849274,6809.894666,8734.430116,-77835.302597
276.851834,-7402.059420,-592.164754,-77375.645298
276.854393,6513.812290,-6809.894666,-78907.836294
276.856952,-1184.329507,592.164754,-74464.482406
276.859512,-8142.265362,-3997.112087,-77375.645298
276.862063,15100.201217,-3849.070898,-82891.532884
276.864614,-2368.659014,8438.347739,-73238.729609
276.867166,-9030.512492,6809.894666,-70634.004916
276.869717,17172.777854,-10362.883188,-71093.662214
276.872268,-592.164754,-7846.182985,-71400.100414
276.874820,-18357.107362,14211.954086,-76915.987999
276.877371,18801.230927,-8586.388927,-80746.465489
276.879922,1480.411884,-20133.601622,-85189.819378
276.882473,-3997.112087,-1628.453072,-68488.937521
276.885025,7994.224174,-12879.583391,-77835.302597
276.887576,-14508.036463,4441.235652,-77222.426198
276.890127,12139.377449,-2516.700203,-76915.987999
276.892679,-1332.370696,-14656.077652,-77375.645298
276.895230,5181.441594,-14063.912898,-78907.836294
276.897781,1924.535449,0.000000,-75230.577904
276.900333,-1036.288319,-2664.741391,-76303.111601
276.902884,-3256.906145,-7105.977043,-75690.235202
276.905435,4145.153275,-10362.883188,-78601.398095
276.907986,3997.112087,-5773.606348,-75690.235202
276.910538,296.082377,-6365.771101,-79367.493593
276.913089,3404.947333,-1480.411884,-76609.549800
276.915640,-4589.276840,-592.164754,-75690.235202
276.918192,-148.041188,-3108.864956,-74464.482406
276.920743,2368.659014,-1776.494261,-73851.606007
276.923294,1776.494261,-4589.276840,-77222.426198
276.925845,-2220.617826,-3849.070898,-77835.302597
276.928397,5329.482782,-10214.842000,-78141.740796
276.930948,148.041188,-4589.276840,-73545.167808
276.933499,296.082377,-5329.482782,-78141.740796
276.936051,1924.535449,-3701.029710,-75537.016103
276.938602,1184.329507,-7698.141797,-78294.959896
276.941153,-1332.370696,-8438.347739,-74617.701505
276.943704,3701.029710,-6069.688724,-75843.454302
276.946256,1480.411884,-592.164754,-76303.111601
276.948807,3701.029710,-4589.276840,-78141.740796
276.951358,-6661.853478,-15692.365970,-77069.207099
276.953910,11547.212695,0.000000,-74158.044206
276.956461,-1480.411884,2516.700203,-73085.510509
276.959012,-9622.677246,-14211.954086,-80899.684589
276.961563,22502.260637,-444.123565,-74770.920605
276.964106,1776.494261,-13619.789333,-70174.347617
276.966649,1628.453072,19541.436869,-71706.538613
276.969192,592.164754,10066.800811,-73851.606007
276.971735,14952.160028,148.041188,-87641.324971
276.974277,-6513.812290,-5773.606348,-80899.684589
276.976820,-8882.471304,-21021.848753,-79214.274493
276.979363,-2812.782580,7698.141797,-71400.100414
276.981906,13767.830521,15544.324782,-70634.004916
276.984448,-3108.864956,4737.318029,-76915.987999
276.986991,-9474.636058,5329.482782,-78448.178995
276.989534,19097.313304,1628.453072,-76303.111601
276.992077,-18357.107362,-18801.230927,-78754.617194
276.994620,11695.253884,888.247130,-77835.302597
276.997162,1332.370696,10955.047942,-77069.207099
276.999705,-4441.235652,-5477.523971,-85036.600278
277.002248,9326.594869,9622.677246,-73238.729609
277.004791,3552.988522,3849.070898,-72625.853210
277.007333,-3108.864956,-6365.771101,-77528.864398
277.009876,3256.906145,0.000000,-75230.577904
277.012419,3701.029710,148.041188,-75690.235202
277.014962,-1184.329507,-2368.659014,-81052.903688
277.017504,3404.947333,1036.288319,-77375.645298
277.020047,3108.864956,-5921.647536,-77988.521696
277.022590,592.164754,296.082377,-77069.207099
277.025133,740.205942,4441.235652,-76762.768900
277.027676,1776.494261,1184.329507,-78141.740796
277.030218,-1332.370696,3552.988522,-76762.768900
277.032761,-592.164754,1776.494261,-76915.987999
277.035304,2664.741391,-3701.029710,-77375.645298
277.037847,3404.947333,-444.123565,-75383.797003
277.040389,-1628.453072,7994.224174,-76456.330700
277.042932,6365.771101,5625.565159,-77222.426198
277.045475,-9622.677246,-1184.329507,-76609.549800
277.048018,8734.430116,-10066.800811,-78754.617194
277.050561,-2220.617826,5477.523971,-74004.825107
277.053103,-4441.235652,-1776.494261,-77375.645298
277.055646,17024.736666,740.205942,-78448.178995
277.058189,6513.812290,3997.112087,-73545.167808
277.060732,-16876.695478,6661.853478,-71706.538613
277.063274,27239.578666,-6513.812290,-74004.825107
277.065813,-6069.688724,-28571.949361,-84883.381178
277.068351,-13027.624579,4293.194464,-84270.504780
277.070889,28275.866984,-10955.047942,-78754.617194
277.073427,-4589.276840,-5773.606348,-74617.701505
277.075965,-6957.935855,-592.164754,-64811.679131
277.078503,2368.659014,-10214.842000,-78448.178995
277.081042,1184.329507,4737.318029,-75843.454302
277.083580,-2812.782580,0.000000,-75383.797003
277.086118,-3404.947333,-10658.965565,-82891.532884
277.088656,18949.272115,-17172.777854,-79367.493593
277.091194,-9474.636058,1776.494261,-72625.853210
277.093733,-2368.659014,-1036.288319,-75690.235202
277.096271,1776.494261,-7698.141797,-75843.454302
277.098809,3404.947333,-10955.047942,-77069.207099
277.101347,2516.700203,-6069.688724,-73698.386908
277.103885,1332.370696,-5773.606348,-78294.959896
277.106424,1184.329507,296.082377,-75383.797003
277.108962,-148.041188,-5773.606348,-77375.645298
277.111500,2072.576638,-3256.906145,-78141.740796
277.114038,592.164754,-1036.288319,-74311.263306
277.116576,444.123565,-7698.141797,-79673.931792
277.119114,1924.535449,-7846.182985,-77835.302597
277.121653,4441.235652,-4737.318029,-75996.673402
277.124191,2812.782580,-7105.977043,-74770.920605
277.126729,-148.041188,-8438.347739,-78448.178995
277.129267,148.041188,-8438.347739,-76762.768900
277.131805,1184.329507,-8586.388927,-76303.111601
277.134344,-296.082377,-2072.576638,-75077.358804
277.136882,3108.864956,3256.906145,-75843.454302
277.139420,5921.647536,-10214.842000,-75383.797003
277.141958,-7846.182985,-5033.400406,-76762.768900
277.144496,-7254.018232,-1628.453072,-77682.083497
277.147035,17616.901420,-5921.647536,-75077.358804
277.149573,-4293.194464,-2812.782580,-76762.768900
277.152111,-8142.265362,-14656.077652,-80286.808190
277.154649,9474.636058,-22502.260637,-74004.825107
277.157187,-2368.659014,20429.683999,-71246.881314
277.159725,-5625.565159,14952.160028,-70787.224015
277.162264,16728.654289,1776.494261,-80899.684589
277.164802,-5625.565159,5033.400406,-66956.746525
277.167335,5329.482782,-3108.864956,-75843.454302
277.169869,-12583.501014,-6957.935855,-77988.521696
277.172402,8734.430116,-592.164754,-81665.780087
277.174935,10510.924376,10807.006753,-75690.235202
277.177469,-7402.059420,444.123565,-74770.920605
277.180002,12139.377449,5625.565159,-73851.606007
277.182536,-8586.388927,-13767.830521,-76762.768900
277.185069,-11103.089130,-6217.729913,-80133.589091
277.187602,15544.324782,13323.706956,-74158.044206
277.190136,7105.977043,8438.347739,-79367.493593
277.192669,-10807.006753,-1480.411884,-80899.684589
277.195203,8142.265362,-2072.576638,-78141.740796
277.197736,3108.864956,-2220.617826,-74924.139704
277.200269,-1924.535449,-3108.864956,-77835.302597
277.202803,1184.329507,-1480.411884,-77988.521696
277.205336,2960.823768,-5477.523971,-78448.178995
277.207870,2960.823768,-1628.453072,-79061.055394
277.210403,-148.041188,3552.988522,-75843.454302
277.212936,-592.164754,1184.329507,-77528.864398
277.215470,2812.782580,3404.947333,-76303.111601
277.218003,0.000000,1036.288319,-78754.617194
277.220537,3849.070898,-2368.659014,-77528.864398
277.223070,5625.565159,888.247130,-77222.426198
277.225603,1036.288319,7105.977043,-76762.768900
277.228137,-3108.864956,12879.583391,-75383.797003
277.230670,-9622.677246,-6217.729913,-78754.617194
277.233204,13767.830521,-12879.583391,-76915.987999
277.235737,-5773.606348,6957.935855,-72166.195912
277.238270,-2812.782580,-6069.688724,-82738.313784
277.240804,17320.819043,-3997.112087,-82125.437386
277.243337,-24130.713709,24870.919651,-73238.729609
277.245871,8290.306550,-4145.153275,-80593.246390
277.248404,-3997.112087,-17024.736666,-89020.296868
277.250937,-7994.224174,-21021.848753,-79520.712692
277.253471,2368.659014,3404.947333,-84576.942979
277.256004,28127.825796,-8290.306550,-74311.263306
277.258538,-15840.407159,5477.523971,-71400.100414
277.261071,5773.606348,-148.041188,-67263.184724
277.263604,13027.624579,-23390.507767,-79980.369991
277.266138,-14508.036463,-2220.617826,-80133.589091
277.268670,5033.400406,2072.576638,-73851.606007
277.271202,9178.553681,-9622.677246,-81972.218286
277.273733,1924.535449,-888.247130,-69255.033019
277.276265,-9474.636058,1924.535449,-73698.386908
277.278797,5625.565159,296.082377,-74158.044206
277.281329,-4441.235652,-8586.388927,-79367.493593
277.283861,-1924.535449,-13767.830521,-81206.122788
277.286393,8142.265362,-8734.430116,-76303.111601
277.288925,-2220.617826,-3108.864956,-75230.577904
277.291457,740.205942,-1924.535449,-77528.864398
277.293989,888.247130,-1184.329507,-78141.740796
277.296520,1628.453072,-5625.565159,-79980.369991
277.299052,888.247130,-5033.400406,-76303.111601
277.301584,296.082377,-6513.812290,-76303.111601
277.304116,2960.823768,-6957.935855,-76303.111601
277.306648,-592.164754,-4737.318029,-76149.892501
277.309180,2368.659014,-8734.430116,-76149.892501
277.311712,1332.370696,-11251.130318,-77069.207099
277.314244,1776.494261,-8290.306550,-78448.178995
277.316776,0.000000,-4441.235652,-78448.178995
277.319307,3404.947333,1628.453072,-75383.797003
277.321839,6957.935855,-10362.883188,-75077.358804
277.324371,-5181.441594,-7550.100608,-75690.235202
277.326903,-12139.377449,-3404.947333,-80286.808190
277.329435,20281.642811,-1924.535449,-74924.139704
277.331967,-1332.370696,-8882.471304,-78601.398095
277.334499,-12139.377449,-8290.306550,-77222.426198
277.337031,9918.759623,-24870.919651,-76456.330700
277.339563,-296.082377,15544.324782,-70327.566716
277.342095,-3404.947333,12731.542202,-70480.785816
277.344626,15248.242405,10214.842000,-79367.493593
277.347158,-2516.700203,3849.070898,-69408.252119
277.349690,2516.700203,-7254.018232,-77222.426198
277.352222,-14952.160028,-4885.359217,-76149.892501
277.354754,15100.201217,296.082377,-81206.122788
277.357286,3849.070898,8734.430116,-74464.482406
277.359818,-5477.523971,-148.041188,-77528.864398
277.362350,14359.995275,5773.606348,-73391.948708
277.364882,-12879.583391,-14211.954086,-79673.931792
277.367413,2812.782580,-8438.347739,-80286.808190
277.369851,12583.501014,10658.965565,-77835.302597
277.372288,1628.453072,11843.295072,-78907.836294
277.374725,-3552.988522,1184.329507,-81359.341888
277.377162,9918.759623,-2664.741391,-76303.111601
277.379599,-1480.411884,-6957.935855,-75077.358804
277.382036,592.164754,-5625.565159,-78448.178995
277.384474,1776.494261,0.000000,-76303.111601
277.386911,592.164754,1628.453072,-77988.521696
277.389348,-444.123565,2960.823768,-75077.358804
277.391785,4293.194464,-5625.565159,-78294.959896
277.394222,-1184.329507,3701.029710,-74924.139704
277.396659,592.164754,2072.576638,-78448.178995
277.399096,2072.576638,-148.041188,-77069.207099
277.401534,5625.565159,2220.617826,-78141.740796
277.403971,-1924.535449,12583.501014,-74311.263306
277.406408,7994.224174,3849.070898,-76609.549800
277.408845,-10510.924376,-3849.070898,-75996.673402
277.411282,-2072.576638,-7105.977043,-77682.083497
277.413719,6661.853478,-296.082377,-72166.195912
277.416157,-9178.553681,-6957.935855,-79367.493593
277.418594,16876.695478,1628.453072,-79061.055394
277.421031,-9178.553681,20281.642811,-72166.195912
277.423468,-8438.347739,3997.112087,-77222.426198
277.425905,16728.654289,-17468.860231,-84117.285680
277.428342,-11547.212695,-21762.054695,-84117.285680
277.430779,5625.565159,6217.729913,-79520.712692
277.433217,23982.672521,-19097.313304,-81052.903688
277.435654,888.247130,-12435.459826,-76303.111601
277.438091,-10658.965565,4589.276840,-63892.364533
277.440528,13471.748144,-23834.631332,-80440.027290
277.442965,-5181.441594,-5477.523971,-79061.055394
277.445402,-3552.988522,6217.729913,-75230.577904
277.447840,10807.006753,-9770.718434,-80286.808190
277.450277,8734.430116,-6069.688724,-73698.386908
277.452714,-10066.800811,3701.029710,-71400.100414
277.455151,444.123565,-1628.453072,-72932.291410
277.457588,2220.617826,-5181.441594,-74311.263306
277.460025,-5773.606348,-11103.089130,-80593.246390
277.462462,8882.471304,-11103.089130,-77682.083497
277.464900,5625.565159,-3849.070898,-73391.948708
277.467281,-3552.988522,-1036.288319,-74158.044206
277.469662,-592.164754,296.082377,-75690.235202
277.472043,4737.318029,-2664.741391,-79061.055394
277.474424,-888.247130,-3108.864956,-74464.482406
277.476805,148.041188,-9326.594869,-75996.673402
277.479186,888.247130,-5033.400406,-74464.482406
277.481567,2664.741391,-12287.418637,-77069.207099
277.483948,444.123565,-10510.924376,-77069.207099
277.486329,-1036.288319,444.123565,-76762.768900
277.488710,6217.729913,-2220.617826,-76762.768900
277.491091,-2220.617826,-6661.853478,-78907.836294
277.493472,-296.082377,-11103.089130,-76303.111601
277.495853,3552.988522,-5181.441594,-75996.673402
277.498234,-13471.748144,1036.288319,-73545.167808
277.500615,-18505.148550,-12879.583391,-81512.560987
277.502996,29312.155303,296.082377,-73698.386908
277.505377,-4293.194464,-10362.883188,-70940.443115
277.507758,-7550.100608,-2812.782580,-80593.246390
277.510139,9326.594869,-11695.253884,-87181.667672
277.512520,-1628.453072,7254.018232,-81512.560987
277.514901,4293.194464,-592.164754,-79673.931792
277.517282,2960.823768,-3701.029710,-69561.471218
277.519663,1332.370696,10362.883188,-73698.386908
277.522044,1480.411884,15692.365970,-74158.044206
277.524425,-6809.894666,-15692.365970,-85649.476676
277.526806,15840.407159,7550.100608,-74004.825107
277.529187,1776.494261,5773.606348,-76609.549800
277.531568,-9918.759623,-13323.706956,-81359.341888
277.533949,11103.089130,-1332.370696,-72625.853210
277.536330,-11251.130318,-1924.535449,-79367.493593
277.538711,3997.112087,7105.977043,-79214.274493
277.541092,5477.523971,13175.665768,-76303.111601
277.543473,3108.864956,2664.741391,-77528.864398
277.545854,-296.082377,-4885.359217,-78294.959896
277.548235,296.082377,-3256.906145,-76609.549800
277.550616,592.164754,-5921.647536,-78601.398095
277.552997,-592.164754,-2516.700203,-78141.740796
277.555378,2368.659014,2664.741391,-77835.302597
277.557759,2368.659014,1776.494261,-75843.454302
277.560140,3552.988522,-2516.700203,-80133.589091
277.562568,1924.535449,740.205942,-78448.178995
277.564997,4293.194464,3701.029710,-78141.740796
277.567425,-592.164754,7550.100608,-78448.178995
277.569854,-1036.288319,11399.171507,-77682.083497
277.572282,-6365.771101,-3997.112087,-77835.302597
277.574711,10658.965565,-13767.830521,-78448.178995
277.577139,-6365.771101,4885.359217,-74770.920605
277.579568,10066.800811,-7254.018232,-76149.892501
277.581996,1184.329507,-1924.535449,-77069.207099
277.584425,-8438.347739,25463.084405,-76762.768900
277.586854,11843.295072,-8290.306550,-83964.066581
277.589282,-4145.153275,-7105.977043,-82738.313784
277.591711,-2812.782580,-8290.306550,-75690.235202
277.594139,17616.901420,-592.164754,-73238.729609
277.596568,-888.247130,3997.112087,-70634.004916
277.598996,-14952.160028,2664.741391,-68335.718422
277.601425,19245.354492,-30496.484810,-84730.162079
277.603853,-444.123565,-15544.324782,-73545.167808
277.606282,-7402.059420,-3701.029710,-80440.027290
277.608710,3108.864956,12731.542202,-73238.729609
277.611139,12139.377449,-6513.812290,-80899.684589
277.613567,-5181.441594,-2960.823768,-69101.813920
277.615996,4737.318029,-16876.695478,-80746.465489
277.618424,4441.235652,-14952.160028,-80899.684589
277.620853,-10362.883188,444.123565,-73391.948708
277.623281,12879.583391,-10214.842000,-78754.617194
277.625710,1332.370696,2072.576638,-70021.128517
277.628138,-1924.535449,-6809.894666,-78448.178995
277.630567,6661.853478,-7254.018232,-76149.892501
277.632995,1776.494261,-3256.906145,-76609.549800
277.635424,-2664.741391,1184.329507,-75996.673402
277.637853,5329.482782,-10955.047942,-80286.808190
277.640281,1036.288319,-8142.265362,-75843.454302
277.642710,-3552.988522,-6661.853478,-73545.167808
277.645138,3849.070898,-14359.995275,-76609.549800
277.647567,1332.370696,-4145.153275,-77528.864398
277.649995,-1628.453072,296.082377,-79367.493593
277.652424,4145.153275,-4293.194464,-78141.740796
277.654852,1776.494261,-17912.983796,-79061.055394
277.657281,-3701.029710,-6661.853478,-75230.577904
277.659746,-5329.482782,-4293.194464,-77528.864398
277.662212,14952.160028,-1036.288319,-75077.358804
277.664678,-5329.482782,-5329.482782,-76609.549800
277.667143,-4885.359217,-11991.336260,-79214.274493
277.669609,11399.171507,-20281.642811,-75077.358804
277.672074,-4145.153275,18209.066173,-72625.853210
277.674540,-18505.148550,13767.830521,-75383.797003
277.677006,24574.837274,2812.782580,-84270.504780
277.679471,-1776.494261,8586.388927,-66956.746525
277.681937,-10066.800811,-22502.260637,-84423.723880
277.684403,-7402.059420,6957.935855,-70787.224015
277.686868,19985.560434,11399.171507,-72166.195912
277.689334,-18653.189738,-3849.070898,-79214.274493
277.691800,7550.100608,8734.430116,-76609.549800
277.694265,13175.665768,6365.771101,-75690.235202
277.696731,-5033.400406,-11547.212695,-77835.302597
277.699196,-3997.112087,-5477.523971,-81359.341888
277.701662,5921.647536,5181.441594,-76915.987999
277.704128,-2368.659014,3552.988522,-79980.369991
277.706593,592.164754,10066.800811,-76149.892501
277.709059,10510.924376,3404.947333,-74004.825107
277.711525,-1036.288319,-7550.100608,-77682.083497
277.713990,1036.288319,-11103.089130,-80440.027290
277.716456,-1628.453072,7105.977043,-72012.976812
277.718922,-740.205942,7698.141797,-73545.167808
277.721387,1628.453072,1036.288319,-76915.987999
277.723853,3108.864956,-5329.482782,-81052.903688
277.726318,1036.288319,9030.512492,-75230.577904
277.728784,5329.482782,4293.194464,-76609.549800
277.731250,-6809.894666,8438.347739,-80286.808190
277.733715,2960.823768,2368.659014,-78601.398095
277.736181,5033.400406,-8586.388927,-76915.987999
277.738670,-592.164754,-8586.388927,-72932.291410
277.741160,1924.535449,-592.164754,-78601.398095
277.743650,-1628.453072,-2220.617826,-74770.920605
277.746140,8290.306550,1036.288319,-80899.684589
277.748630,-11103.089130,18801.230927,-71553.319513
277.751120,-888.247130,-148.041188,-77528.864398
277.753610,10955.047942,-8290.306550,-82431.875585
277.756101,-9326.594869,-21317.931130,-82278.656485
277.758591,7994.224174,4589.276840,-82125.437386
277.761081,17172.777854,-2960.823768,-70174.347617
277.763571,-3849.070898,-10955.047942,-72166.195912
277.766061,-7105.977043,-296.082377,-65424.555529
277.768551,16580.613101,-22058.137072,-78448.178995
277.771041,-8586.388927,-1480.411884,-79367.493593
277.773531,-4737.318029,10807.006753,-75077.358804
277.776021,17320.819043,-2368.659014,-79520.712692
277.778511,-4441.235652,-740.205942,-70634.004916
277.781001,-3108.864956,-14952.160028,-80133.589091
277.783491,9326.594869,-14508.036463,-77222.426198
277.785981,-1628.453072,-7698.141797,-77375.645298
277.788471,-1924.535449,-8438.347739,-81665.780087
277.790961,10807.006753,-5181.441594,-77375.645298
277.793451,-2960.823768,-3404.947333,-76915.987999
277.795942,-2516.700203,-3997.112087,-79061.055394
277.798432,3849.070898,-592.164754,-74004.825107
277.800922,-148.041188,-4737.318029,-77988.521696
277.803412,5625.565159,-8142.265362,-75843.454302
277.805902,1036.288319,-10658.965565,-76915.987999
277.808392,592.164754,-10362.883188,-75843.454302
277.810882,-1480.411884,-4737.318029,-77835.302597
277.813372,3849.070898,1036.288319,-75383.797003
277.815862,5181.441594,-6217.729913,-77988.521696
277.818352,-7105.977043,-15840.407159,-77835.302597
277.820842,14063.912898,-6069.688724,-74464.482406
277.823332,-7994.224174,4589.276840,-73085.510509
277.825822,2220.617826,-11843.295072,-81972.218286
277.828312,10214.842000,2664.741391,-72319.415011
277.830802,-4441.235652,-8586.388927,-71706.538613
277.833292,-14063.912898,-26055.249158,-85955.914876
277.835782,19541.436869,-4145.153275,-80133.589091
277.838294,-10362.883188,17172.777854,-73238.729609
277.840805,11399.171507,4441.235652,-81206.122788
277.843316,1924.535449,5625.565159,-69408.252119
277.845828,-1036.288319,-6069.688724,-76456.330700
277.848339,-16136.489536,-7994.224174,-80286.808190
277.850850,21169.889941,-148.041188,-81206.122788
277.853362,8734.430116,13619.789333,-74770.920605
277.855873,-12139.377449,-4293.194464,-80746.465489
277.858384,15396.283594,-1036.288319,-75690.235202
277.860896,1480.411884,-1776.494261,-72012.976812
277.863407,-8586.388927,-7846.182985,-77835.302597
277.865918,9770.718434,1480.411884,-78601.398095
277.868430,-296.082377,10510.924376,-76762.768900
277.870941,-3552.988522,2220.617826,-81972.218286
277.873452,11399.171507,3256.906145,-76609.549800
277.875964,4589.276840,-444.123565,-74004.825107
277.878475,-1776.494261,-1776.494261,-74464.482406
277.880986,-740.205942,-7994.224174,-82738.313784
277.883498,1628.453072,-2220.617826,-78294.959896
277.886009,3997.112087,4885.359217,-75996.673402
277.888520,-148.041188,10658.965565,-75383.797003
277.891032,-1480.411884,8142.265362,-76915.987999
277.893543,-2664.741391,7254.018232,-80440.027290
277.896054,-5033.400406,-3404.947333,-80133.589091
277.898566,5773.606348,-11695.253884,-79061.055394
277.901077,0.000000,-888.247130,-77222.426198
277.903588,5181.441594,-1480.411884,-74924.139704
277.906100,1628.453072,-296.082377,-77682.083497
277.908611,-1184.329507,14656.077652,-77988.521696
277.911122,19097.313304,-6661.853478,-77682.083497
277.913633,-16876.695478,10658.965565,-68488.937521
277.916145,9770.718434,-1332.370696,-74158.044206
277.918656,8882.471304,-13471.748144,-80440.027290
277.921167,-17912.983796,4737.318029,-75537.016103
277.923679,-15544.324782,148.041188,-71093.662214
277.926190,21169.889941,-32124.937883,-84730.162079
277.928701,-5477.523971,-15544.324782,-72472.634111
277.931213,-3701.029710,-3256.906145,-73391.948708
277.933724,12139.377449,2072.576638,-77069.207099
277.936235,-12139.377449,11103.089130,-78141.740796
277.938764,-1776.494261,-7550.100608,-79827.150892
277.941292,19541.436869,-19837.519246,-80593.246390
277.943821,-8734.430116,-8142.265362,-79520.712692
277.946349,-7105.977043,-1184.329507,-72625.853210
277.948878,9622.677246,-9770.718434,-76149.892501
277.951406,-296.082377,296.082377,-71400.100414
277.953935,-1480.411884,-2072.576638,-77835.302597
277.956463,8290.306550,-3997.112087,-77069.207099
277.958992,-1184.329507,-6661.853478,-78754.617194
277.961520,-1332.370696,-5625.565159,-78294.959896
277.964049,7550.100608,-6217.729913,-75537.016103
277.966577,-3552.988522,-7994.224174,-77682.083497
277.969106,-1036.288319,-10362.883188,-77069.207099
277.971634,148.041188,-5477.523971,-75843.454302
277.974163,3849.070898,-4145.153275,-77988.521696
277.976691,5625.565159,-12139.377449,-77069.207099
277.979220,592.164754,-12287.418637,-74617.701505
277.981748,-6217.729913,-2368.659014,-76456.330700
277.984277,11103.089130,3404.947333,-77222.426198
277.986805,-12583.501014,-8882.471304,-78141.740796
277.989334,16728.654289,740.205942,-75537.016103
277.991863,8734.430116,-16580.613101,-74004.825107
277.994391,-3997.112087,5181.441594,-71093.662214
277.996920,1628.453072,-17468.860231,-82891.532884
277.999448,20429.683999,4589.276840,-84117.285680
278.001977,-6513.812290,3701.029710,-82431.875585
278.004505,-12435.459826,-6957.935855,-76303.111601
278.007034,19689.478057,12583.501014,-70327.566716
278.009562,-7254.018232,2072.576638,-75383.797003
278.012091,296.082377,-18949.272115,-87181.667672
278.014619,24426.796086,3108.864956,-77682.083497
278.017148,-2812.782580,8438.347739,-74617.701505
278.019676,-10066.800811,-10955.047942,-81665.780087
278.022205,12583.501014,-1776.494261,-71400.100414
278.024733,-8586.388927,-2220.617826,-76456.330700
278.027262,-3701.029710,3849.070898,-77069.207099
278.029790,13767.830521,13175.665768,-75230.577904
278.032319,-3108.864956,3404.947333,-79214.274493
278.034847,-2664.741391,-4145.153275,-78141.740796
278.037376,3404.947333,-6513.812290,-77988.521696
278.039916,-148.041188,4737.318029,-74617.701505
278.042456,0.000000,-592.164754,-75537.016103
278.044996,740.205942,-1036.288319,-79061.055394
278.047537,5329.482782,5329.482782,-78754.617194
278.050077,-1776.494261,9178.553681,-76915.987999
278.052617,2368.659014,9622.677246,-72625.853210
278.055157,-296.082377,-7402.059420,-76456.330700
278.057698,0.000000,-6365.771101,-77835.302597
278.060238,1924.535449,2368.659014,-75537.016103
278.062778,10658.965565,-4737.318029,-77835.302597
278.065318,-10066.800811,296.082377,-78141.740796
278.067858,3552.988522,13767.830521,-78754.617194
278.070399,21317.931130,-5329.482782,-77222.426198
278.072939,-24574.837274,10510.924376,-70174.347617
278.075479,21169.889941,740.205942,-71859.757712
278.078019,2812.782580,-17468.860231,-80133.589091
278.080560,-18801.230927,11547.212695,-71706.538613
278.083100,-7105.977043,-740.205942,-73085.510509
278.085640,16728.654289,-33753.390955,-87947.763170
278.088180,-14359.995275,-11399.171507,-76609.549800
278.090721,-1184.329507,-5773.606348,-79214.274493
278.093261,12435.459826,-6069.688724,-77682.083497
278.095801,-9030.512492,11695.253884,-79214.274493
278.098341,2960.823768,-3256.906145,-75690.235202
278.100882,15396.283594,-13619.789333,-79520.712692
278.103422,-1776.494261,-11695.253884,-75996.673402
278.105962,-4589.276840,-4885.359217,-72932.291410
278.108502,7105.977043,-10362.883188,-77835.302597
278.111043,-1480.411884,-4441.235652,-76609.549800
278.113583,2664.741391,-3108.864956,-74770.920605
278.116123,6069.688724,-2516.700203,-77069.207099
278.118663,-1184.329507,-3256.906145,-75537.016103
278.121203,-444.123565,-8142.265362,-77069.207099
278.123744,4441.235652,-9918.759623,-78907.836294
278.126284,5477.523971,-4737.318029,-74770.920605
278.128824,-592.164754,-5625.565159,-75996.673402
278.131364,2368.659014,-9622.677246,-76915.987999
278.133905,6809.894666,-12879.583391,-78601.398095
278.136445,-9918.759623,-15396.283594,-76915.987999
278.138985,3849.070898,-2516.700203,-82738.313784
278.141533,2664.741391,10658.965565,-72472.634111
278.144082,-4737.318029,-6957.935855,-79980.369991
278.146630,21021.848753,888.247130,-75230.577904
278.149178,7846.182985,-9918.759623,-72166.195912
278.151726,-15100.201217,-19097.313304,-78601.398095
278.154274,3256.906145,-15396.283594,-84423.723880
278.156823,2812.782580,10955.047942,-80593.246390
278.159371,1628.453072,7254.018232,-77222.426198
278.161919,5625.565159,4293.194464,-72472.634111
278.164467,4885.359217,9622.677246,-75843.454302
278.167016,-19985.560434,-2812.782580,-80440.027290
278.169564,19097.313304,-7402.059420,-85496.257577
278.172112,26943.496289,8882.471304,-73238.729609
278.174660,-17912.983796,-3108.864956,-77682.083497
278.177208,4145.153275,-6069.688724,-78294.959896
278.179757,9178.553681,3552.988522,-67109.965625
278.182305,-8142.265362,-9178.553681,-76915.987999
278.184853,6809.894666,6069.688724,-77528.864398
278.187401,-2072.576638,7254.018232,-78601.398095
278.189949,148.041188,296.082377,-80286.808190
278.192498,6957.935855,5773.606348,-75230.577904
278.195046,4293.194464,-2368.659014,-77375.645298
278.197594,-1628.453072,-1036.288319,-75690.235202
278.200142,1924.535449,-1184.329507,-76609.549800
278.202691,592.164754,3552.988522,-74924.139704
278.205239,1036.288319,4589.276840,-79980.369991
278.207787,-148.041188,9474.636058,-75843.454302
278.210335,-2812.782580,-148.041188,-79367.493593
278.212883,4293.194464,-6957.935855,-76762.768900
278.215432,6661.853478,-2664.741391,-76149.892501
278.217980,3997.112087,2220.617826,-74311.263306
278.220528,-9178.553681,-4145.153275,-78907.836294
278.223076,12139.377449,6661.853478,-77375.645298
278.225625,-9178.553681,14656.077652,-71706.538613
278.228173,-7698.141797,-6661.853478,-79673.931792
278.230721,19097.313304,-12583.501014,-84423.723880
278.233269,-14359.995275,-23390.507767,-86262.353075
278.235817,10807.006753,3256.906145,-80593.246390
278.238366,22354.219448,-3256.906145,-72319.415011
278.240914,-4737.318029,-15544.324782,-77375.645298
278.243469,-14656.077652,4145.153275,-66037.431928
278.246024,22354.219448,-24870.919651,-78907.836294
278.248578,-3108.864956,-12435.459826,-79367.493593
278.251133,-5625.565159,12287.418637,-67569.622924
278.253688,30052.361245,-7402.059420,-79367.493593
278.256243,-18061.024985,2072.576638,-69561.471218
278.258798,148.041188,-15544.324782,-80593.246390
278.261353,11547.212695,-17912.983796,-74924.139704
278.263908,-4145.153275,-11547.212695,-78448.178995
278.266463,-2220.617826,-296.082377,-74464.482406
278.269018,12435.459826,-10066.800811,-79827.150892
278.271572,-2812.782580,1332.370696,-71246.881314
278.274127,-148.041188,2368.659014,-75230.577904
278.276682,740.205942,-5773.606348,-76149.892501
278.279237,-2072.576638,-12435.459826,-81512.560987
278.281792,3849.070898,-444.123565,-76915.987999
278.284347,4293.194464,-6365.771101,-74770.920605
278.286902,3552.988522,-14952.160028,-75537.016103
278.289457,-3552.988522,-16876.695478,-77222.426198
278.292012,-4145.153275,-9918.759623,-78294.959896
278.294566,-3997.112087,-3404.947333,-76609.549800
278.297121,13471.748144,11399.171507,-73545.167808
278.299676,-3701.029710,-6069.688724,-76762.768900
278.302231,592.164754,-5921.647536,-79673.931792
278.304786,12435.459826,-5477.523971,-70480.785816
278.307341,-8734.430116,-16136.489536,-77528.864398
278.309896,-9030.512492,-17912.983796,-83504.409282
278.312451,29016.072926,4589.276840,-81972.218286
278.315005,1480.411884,15248.242405,-69101.813920
278.317560,-15692.365970,-16728.654289,-89020.296868
278.320115,1628.453072,8882.471304,-71553.319513
278.322670,24426.796086,14508.036463,-69561.471218
278.325225,-30792.567187,-4293.194464,-78141.740796
278.327780,21169.889941,5477.523971,-78141.740796
278.330335,3849.070898,5033.400406,-74158.044206
278.332890,-14063.912898,-9622.677246,-82585.094684
278.335445,2220.617826,-15988.448347,-80286.808190
278.337999,1036.288319,3552.988522,-75537.016103
278.340554,-8142.265362,3404.947333,-78907.836294
278.343109,11843.295072,11251.130318,-75843.454302
278.345669,1036.288319,8734.430116,-76303.111601
278.348230,-2368.659014,-7550.100608,-81818.999186
278.350790,2664.741391,888.247130,-75383.797003
278.353350,1036.288319,-1776.494261,-79061.055394
278.355910,740.205942,7105.977043,-75077.358804
278.358470,8290.306550,9178.553681,-72166.195912
278.361031,1332.370696,592.164754,-77375.645298
278.363591,-2072.576638,-2812.782580,-78294.959896
278.366151,4293.194464,888.247130,-73545.167808
278.368711,-1184.329507,-1036.288319,-79520.712692
278.371272,8142.265362,148.041188,-76915.987999
278.373832,-4145.153275,444.123565,-77069.207099
278.376392,6957.935855,2072.576638,-79520.712692
278.378952,-1628.453072,12287.418637,-72166.195912
278.381512,-13767.830521,9326.594869,-68029.280222
278.384073,17468.860231,-2812.782580,-73085.510509
278.386633,0.000000,-11695.253884,-77222.426198
278.389193,-21169.889941,4885.359217,-80440.027290
278.391753,25018.960840,-25759.166782,-80440.027290
278.394313,-5329.482782,-10807.006753,-77222.426198
278.396874,-12583.501014,-296.082377,-69867.909418
278.399434,18061.024985,-18357.107362,-76149.892501
278.401994,-2516.700203,-7846.182985,-78448.178995
278.404554,-18801.230927,10362.883188,-80440.027290
278.407114,15544.324782,-1036.288319,-77069.207099
278.409675,5773.606348,-7846.182985,-78294.959896
278.412235,-17024.736666,-7994.224174,-77222.426198
278.414795,14804.118840,-17172.777854,-75537.016103
278.417355,-2664.741391,-8290.306550,-76303.111601
278.419915,-1924.535449,-148.041188,-74464.482406
278.422476,8438.347739,-1036.288319,-77069.207099
278.425036,4293.194464,1480.411884,-72932.291410
278.427596,-148.041188,-6513.812290,-74311.263306
278.430156,-2220.617826,-7994.224174,-76609.549800
278.432716,4145.153275,-7254.018232,-79367.493593
278.435277,4737.318029,-7846.182985,-76149.892501
278.437837,4293.194464,-10510.924376,-77528.864398
278.440397,-1480.411884,-10955.047942,-72319.415011
278.442957,-3108.864956,-14211.954086,-77528.864398
278.445518,-1184.329507,-2960.823768,-75690.235202
278.448082,11547.212695,3701.029710,-77069.207099
278.450646,-2072.576638,-8142.265362,-78448.178995
278.453210,444.123565,-4293.194464,-78294.959896
278.455775,9178.553681,-6365.771101,-70634.004916
278.458339,-6957.935855,-6809.894666,-74770.920605
278.460903,-2960.823768,-14804.118840,-79827.150892
278.463467,14359.995275,4589.276840,-83351.190182
278.466031,-4589.276840,-1628.453072,-83504.409282
278.468596,-1184.329507,-2960.823768,-74311.263306
278.471160,13175.665768,16876.695478,-72472.634111
278.473724,2072.576638,17616.901420,-72779.072310
278.476288,-14656.077652,-8734.430116,-82738.313784
278.478853,32569.061448,4737.318029,-73698.386908
278.481417,-14211.954086,-888.247130,-77988.521696
278.483981,-3701.029710,-8882.471304,-79673.931792
278.486545,9474.636058,4737.318029,-68795.375720
278.489110,-3256.906145,-6365.771101,-76303.111601
278.491674,-1332.370696,2664.741391,-79367.493593
278.494238,740.205942,6661.853478,-81972.218286
278.496802,-3552.988522,7402.059420,-75077.358804
278.499367,-296.082377,2072.576638,-78754.617194
278.501931,8882.471304,-4293.194464,-76456.330700
278.504495,-5477.523971,2072.576638,-79061.055394
278.507059,3701.029710,7846.182985,-74004.825107
278.509624,4293.194464,-3108.864956,-79214.274493
278.512188,-3256.906145,-1776.494261,-78448.178995
278.514752,2812.782580,-592.164754,-77682.083497
278.517316,3997.112087,-592.164754,-78754.617194
278.519881,-6809.894666,7698.141797,-77835.302597
278.522445,1776.494261,-2368.659014,-78907.836294
278.525009,5773.606348,-2516.700203,-80746.465489
278.527573,-14952.160028,15988.448347,-75537.016103
278.530138,25018.960840,-13027.624579,-78907.836294
278.532702,-15988.448347,1776.494261,-76762.768900
278.535266,3849.070898,-3108.864956,-76149.892501
278.537830,15248.242405,2516.700203,-70021.128517
278.540395,-14359.995275,8882.471304,-72319.415011
278.542959,-19985.560434,1036.288319,-68488.937521
278.545523,17172.777854,-20873.807564,-81052.903688
278.548087,3701.029710,-16876.695478,-76149.892501
278.550653,-16580.613101,-5181.441594,-78754.617194
278.553219,18653.189738,-2812.782580,-73698.386908
278.555784,-8586.388927,4737.318029,-78141.740796
278.558350,-3552.988522,-5921.647536,-81972.218286
278.560916,25167.002028,-18653.189738,-78448.178995
278.563481,-13323.706956,-10362.883188,-73851.606007
278.566047,-3701.029710,-7846.182985,-71859.757712
278.568613,4441.235652,-7254.018232,-78141.740796
278.571178,3701.029710,-3849.070898,-75690.235202
278.573744,740.205942,2220.617826,-75077.358804
278.576310,6217.729913,-740.205942,-73851.606007
278.578875,1184.329507,-4589.276840,-74617.701505
278.581441,-2220.617826,-11399.171507,-79980.369991
278.584007,1628.453072,-10955.047942,-78754.617194
278.586572,6365.771101,-8586.388927,-76609.549800
278.589138,3256.906145,-14063.912898,-75383.797003
278.591704,148.041188,-7994.224174,-74464.482406
278.594269,-5625.565159,3997.112087,-72472.634111
278.596835,9918.759623,592.164754,-79061.055394
278.599401,-4885.359217,-12583.501014,-81052.903688
278.601966,1036.288319,444.123565,-76149.892501
278.604532,12287.418637,-11399.171507,-73698.386908
278.607098,-4737.318029,-13027.624579,-75230.577904
278.609663,-1776.494261,-13619.789333,-81052.903688
278.612229,27239.578666,3404.947333,-80133.589091
278.614795,-13619.789333,3849.070898,-81665.780087
278.617360,-12139.377449,-16876.695478,-82431.875585
278.619926,28719.990550,16136.489536,-68488.937521
278.622492,-9770.718434,18357.107362,-73238.729609
278.625057,-4145.153275,-14508.036463,-86568.791274
278.627623,31532.773129,10362.883188,-71246.881314
278.630189,-26351.331535,-4737.318029,-83964.066581
278.632754,6809.894666,-2220.617826,-78294.959896
278.635320,11843.295072,-1628.453072,-71859.757712
278.637886,1924.535449,-3404.947333,-73698.386908
278.640451,-2368.659014,5181.441594,-76303.111601
278.643017,4885.359217,10362.883188,-75230.577904
278.645583,-1628.453072,8142.265362,-75843.454302
278.648148,1924.535449,-296.082377,-78448.178995
278.650714,4441.235652,2516.700203,-76915.987999
278.653281,-1036.288319,1628.453072,-78141.740796
278.655848,-2960.823768,740.205942,-77988.521696
278.658415,0.000000,-5477.523971,-80440.027290
278.660982,5625.565159,-1184.329507,-77222.426198
278.663548,1036.288319,3256.906145,-74311.263306
278.666115,-3849.070898,8438.347739,-77988.521696
278.668682,8290.306550,0.000000,-78601.398095
278.671249,-6513.812290,-3256.906145,-77069.207099
278.673816,9622.677246,4293.194464,-76303.111601
278.676383,8882.471304,6809.894666,-71859.757712
278.678950,-25167.002028,6217.729913,-75230.577904
278.681517,2072.576638,740.205942,-74004.825107
278.684083,14211.954086,-9474.636058,-79214.274493
278.686650,-25611.125593,6069.688724,-76915.987999
278.689217,11399.171507,-18801.230927,-81512.560987
278.691784,9178.553681,-20577.725188,-84730.162079
278.694351,-19985.560434,592.164754,-73391.948708
278.696918,13471.748144,-13323.706956,-78754.617194
278.699485,4589.276840,-7550.100608,-77069.207099
278.702052,-12583.501014,15396.283594,-77835.302597
278.704618,18801.230927,-1480.411884,-77682.083497
278.707185,4145.153275,-12139.377449,-78754.617194
278.709752,-11991.336260,-12583.501014,-79061.055394
278.712319,14952.160028,-15100.201217,-74158.044206
278.714886,-888.247130,-7105.977043,-76915.987999
278.717453,-2072.576638,4441.235652,-75230.577904
278.720020,3552.988522,-2220.617826,-81052.903688
278.722587,4885.359217,-9030.512492,-76915.987999
278.725153,-2812.782580,-8290.306550,-79673.931792
278.727720,-444.123565,-2812.782580,-75230.577904
278.730287,3108.864956,-11399.171507,-79520.712692
278.732854,8142.265362,-15544.324782,-78448.178995
278.735421,-7550.100608,-15248.242405,-76915.987999
278.737988,-3404.947333,-5329.482782,-71859.757712
278.740555,9326.594869,2516.700203,-76762.768900
278.743122,-1332.370696,1776.494261,-74464.482406
278.745688,10807.006753,-7994.224174,-81818.999186
278.748255,888.247130,-12287.418637,-77835.302597
278.750822,-11103.089130,-26351.331535,-77375.645298
278.753389,19689.478057,9030.512492,-74158.044206
278.755957,-9178.553681,13323.706956,-69714.690318
278.758525,5181.441594,8882.471304,-79827.150892
278.761093,8586.388927,10955.047942,-68182.499322
278.763661,-10658.965565,-15544.324782,-84883.381178
278.766229,-16432.571912,3256.906145,-75383.797003
278.768796,32272.979071,13915.871710,-74924.139704
278.771364,-25907.207970,4589.276840,-75690.235202
278.773932,9622.677246,1036.288319,-83351.190182
278.776500,18505.148550,6661.853478,-69867.909418
278.779068,-4589.276840,-2516.700203,-72012.976812
278.781636,-888.247130,-18801.230927,-83810.847481
278.784204,444.123565,2220.617826,-76915.987999
278.786772,-296.082377,-740.205942,-81972.218286
278.789340,0.000000,9326.594869,-72779.072310
278.791908,8142.265362,0.000000,-78141.740796
278.794476,-6069.688724,3404.947333,-77682.083497
278.797043,1480.411884,4293.194464,-76609.549800
278.799611,4441.235652,5181.441594,-75383.797003
278.802179,-2960.823768,-148.041188,-76303.111601
278.804747,4441.235652,-8882.471304,-79673.931792
278.807315,9030.512492,1776.494261,-77375.645298
278.809883,-7698.141797,9326.594869,-75843.454302
278.812451,11103.089130,2664.741391,-77988.521696
278.815019,-6217.729913,3404.947333,-75843.454302
278.817587,3404.947333,1480.411884,-79367.493593
278.820155,14804.118840,2072.576638,-78601.398095
278.822722,-9918.759623,6513.812290,-68182.499322
278.825290,888.247130,2368.659014,-76303.111601
278.827858,12879.583391,-15100.201217,-81052.903688
278.830426,-28423.908173,11843.295072,-77528.864398
278.832994,9178.553681,-18061.024985,-81665.780087
278.835562,14211.954086,-30792.567187,-86875.229473
278.838130,-23538.548956,7105.977043,-70940.443115
278.840698,11695.253884,-11695.253884,-81818.999186
278.843266,5329.482782,-12879.583391,-79061.055394
278.845834,-16432.571912,7550.100608,-77069.207099
278.848401,8882.471304,888.247130,-77222.426198
278.850969,9326.594869,-16432.571912,-80746.465489
278.853537,-18653.189738,-3108.864956,-75383.797003
278.856105,13175.665768,-14211.954086,-77835.302597
278.858674,-592.164754,-10362.883188,-75843.454302
278.861243,-888.247130,2072.576638,-74770.920605
278.863812,4293.194464,3997.112087,-76762.768900
278.866381,2664.741391,-9178.553681,-79520.712692
278.868950,-296.082377,-12287.418637,-77528.864398
278.871518,-296.082377,-9326.594869,-77682.083497
278.874087,2960.823768,-13323.706956,-81665.780087
278.876656,5477.523971,-15692.365970,-73698.386908
278.879225,-3552.988522,-5773.606348,-74924.139704
278.881794,2368.659014,-3404.947333,-77528.864398
278.884363,4293.194464,-2516.700203,-77222.426198
278.886932,-9326.594869,-6661.853478,-79673.931792
278.889500,15840.407159,-2516.700203,-77375.645298
278.892069,15396.283594,-15396.283594,-73698.386908
278.894638,-5921.647536,-148.041188,-74770.920605
278.897207,-1332.370696,-16580.613101,-83504.409282
278.899776,13471.748144,8882.471304,-80593.246390
278.902345,-8734.430116,3701.029710,-82125.437386
278.904914,-1628.453072,-6069.688724,-74464.482406
278.907483,17468.860231,6957.935855,-74004.825107
278.910051,-16432.571912,1628.453072,-78141.740796
278.912620,15988.448347,-5625.565159,-79980.369991
278.915189,29312.155303,8142.265362,-72932.291410
278.917758,-25315.043216,4441.235652,-79673.931792
278.920327,3997.112087,-6069.688724,-82125.437386
278.922896,9326.594869,8290.306550,-69867.909418
278.925465,-3256.906145,-11843.295072,-81665.780087
278.928034,-2220.617826,1036.288319,-79827.150892
278.930602,2664.741391,7402.059420,-77375.645298
278.933171,2220.617826,2368.659014,-76762.768900
278.935740,2812.782580,2664.741391,-74311.263306
278.938309,3108.864956,5181.441594,-75537.016103
278.940829,-296.082377,2220.617826,-77682.083497
278.943350,1332.370696,-1036.288319,-77375.645298
278.945870,3108.864956,-3849.070898,-77069.207099
278.948391,3256.906145,592.164754,-77528.864398
278.950911,-2664.741391,9178.553681,-74924.139704
278.953432,6957.935855,2960.823768,-77222.426198
278.955952,-3256.906145,-2664.741391,-76149.892501
278.958473,5033.400406,4737.318029,-78448.178995
278.960993,22502.260637,-6513.812290,-78448.178995
278.963514,-7698.141797,5773.606348,-70174.347617
278.966034,3552.988522,4885.359217,-73238.729609
278.968554,9474.636058,-17764.942608,-82125.437386
278.971075,-27387.619854,7402.059420,-79980.369991
278.973595,15248.242405,-17024.736666,-80440.027290
278.976116,9770.718434,-24870.919651,-83657.628382
278.978636,-23094.425390,5033.400406,-72319.415011
278.981157,15248.242405,-10362.883188,-74924.139704
278.983677,14804.118840,-9770.718434,-73085.510509
278.986198,-14804.118840,5921.647536,-80746.465489
278.988718,10214.842000,3997.112087,-74924.139704
278.991239,6513.812290,-13471.748144,-79980.369991
278.993759,-10510.924376,-9918.759623,-75383.797003
278.996279,10955.047942,-15544.324782,-76609.549800
278.998800,444.123565,-11843.295072,-77835.302597
279.001320,-296.082377,1184.329507,-73698.386908
279.003841,5773.606348,888.247130,-76303.111601
279.006361,4737.318029,-2960.823768,-77988.521696
279.008882,-1924.535449,-11695.253884,-77222.426198
279.011402,-1184.329507,-9178.553681,-76456.330700
279.013923,6069.688724,-13175.665768,-76915.987999
279.016443,-3108.864956,-10214.842000,-76609.549800
279.018963,2516.700203,-2516.700203,-76915.987999
279.021484,4885.359217,1184.329507,-75077.358804
279.024004,1184.329507,-5773.606348,-76149.892501
279.026525,-592.164754,-3256.906145,-77835.302597
279.029045,-444.123565,-8438.347739,-75077.358804
279.031566,-9030.512492,-35233.802839,-81665.780087
279.034086,19837.519246,14063.912898,-67569.622924
279.036607,-17616.901420,13915.871710,-71859.757712
279.039127,16580.613101,4885.359217,-81972.218286
279.041659,-148.041188,14952.160028,-70021.128517
279.044190,-10362.883188,-21317.931130,-87334.886772
279.046722,-4737.318029,-740.205942,-73698.386908
279.049254,23686.590144,16876.695478,-69408.252119
279.051785,-16432.571912,8586.388927,-75996.673402
279.054317,5921.647536,0.000000,-80133.589091
279.056848,13323.706956,13471.748144,-74311.263306
279.059380,-18357.107362,-1924.535449,-79061.055394
279.061912,7254.018232,-10362.883188,-79827.150892
279.064443,5477.523971,2960.823768,-75537.016103
279.066975,1332.370696,5921.647536,-75537.016103
279.069506,444.123565,2220.617826,-79827.150892
279.072038,3997.112087,3552.988522,-74770.920605
279.074570,-2664.741391,3997.112087,-77375.645298
279.077101,2072.576638,2960.823768,-77069.207099
279.079633,2516.700203,-3997.112087,-80286.808190
279.082164,-1332.370696,444.123565,-77069.207099
279.084696,5921.647536,1184.329507,-77222.426198
279.087228,-888.247130,6513.812290,-77375.645298
279.089759,3701.029710,5181.441594,-75230.577904
279.092291,-148.041188,-3404.947333,-78601.398095
279.094823,1036.288319,6069.688724,-79061.055394
279.097354,24278.754898,-10807.006753,-78294.959896
279.099886,-8734.430116,4589.276840,-68335.718422
279.102417,3701.029710,6069.688724,-72166.195912
279.104949,6069.688724,-6809.894666,-77988.521696
279.107481,-24130.713709,3701.029710,-81052.903688
279.110012,16136.489536,-17320.819043,-80746.465489
279.112544,6661.853478,-24870.919651,-86415.572174
279.115075,-23242.466579,3552.988522,-72472.634111
279.117607,18357.107362,-10955.047942,-77988.521696
279.120139,20429.683999,-8438.347739,-76303.111601
279.122670,-19097.313304,5033.400406,-82278.656485
279.125202,9178.553681,4589.276840,-76762.768900
279.127733,5625.565159,-10214.842000,-77069.207099
279.130265,-7550.100608,-11695.253884,-77682.083497
279.132797,7846.182985,-10362.883188,-73085.510509
279.135328,-296.082377,-11843.295072,-79827.150892
279.137860,0.000000,-6069.688724,-78141.740796
279.140392,3404.947333,-2812.782580,-77222.426198
279.142932,4145.153275,-3404.947333,-74770.920605
279.145473,-1184.329507,-7994.224174,-77222.426198
279.148014,-1480.411884,-13767.830521,-76915.987999
279.150555,-1776.494261,-10807.006753,-75383.797003
279.153096,6513.812290,-7402.059420,-77069.207099
279.155637,5329.482782,1036.288319,-74311.263306
279.158177,740.205942,1924.535449,-75230.577904
279.160718,-740.205942,-10214.842000,-77528.864398
279.163259,-2664.741391,-8142.265362,-76456.330700
279.165800,6069.688724,-16580.613101,-73698.386908
279.168341,20577.725188,13323.706956,-67416.403824
279.170882,-8142.265362,-1776.494261,-74311.263306
279.173422,15544.324782,7105.977043,-83504.409282
279.175963,-6069.688724,15840.407159,-74158.044206
279.178504,-15544.324782,-18505.148550,-86875.229473
279.181045,9474.636058,15248.242405,-68642.156621
279.183586,14508.036463,11103.089130,-72932.291410
279.186127,-12879.583391,-4885.359217,-76762.768900
279.188668,25018.960840,4293.194464,-81206.122788
279.191208,-1480.411884,8438.347739,-75537.016103
279.193749,-10066.800811,-8882.471304,-80440.027290
279.196290,8586.388927,-4293.194464,-74770.920605
279.198831,4441.235652,6809.894666,-71706.538613
279.201372,-1332.370696,5773.606348,-75230.577904
279.203913,1480.411884,2812.782580,-77528.864398
279.206453,1036.288319,3108.864956,-74464.482406
279.208994,-296.082377,-5181.441594,-81665.780087
279.211535,4885.359217,3552.988522,-75537.016103
279.214076,2812.782580,1480.411884,-75690.235202
279.216617,-740.205942,888.247130,-78601.398095
279.219158,3552.988522,1776.494261,-77988.521696
279.221698,444.123565,7994.224174,-75996.673402
279.224239,-1332.370696,-2072.576638,-78601.398095
279.226780,7254.018232,1776.494261,-75996.673402
279.229321,-11695.253884,15544.324782,-75230.577904
279.231862,20577.725188,-14508.036463,-80899.684589
279.234403,-9326.594869,0.000000,-76149.892501
279.236944,-5625.565159,-11843.295072,-76762.768900
279.239484,20429.683999,5625.565159,-69714.690318
279.242025,2960.823768,3701.029710,-70787.224015
279.244528,-25759.166782,-3849.070898,-76303.111601
279.247031,29608.237680,-27979.784608,-83657.628382
279.249533,-1924.535449,-11843.295072,-72472.634111
279.252036,-14063.912898,-8438.347739,-80746.465489
279.254539,25315.043216,-8586.388927,-72166.195912
279.257042,-11843.295072,2960.823768,-79367.493593
279.259544,-12139.377449,6217.729913,-75843.454302
279.262047,8734.430116,-13323.706956,-79980.369991
279.264550,-444.123565,-15248.242405,-78448.178995
279.267052,-2960.823768,-11103.089130,-76149.892501
279.269555,8438.347739,-6809.894666,-75843.454302
279.272058,592.164754,-740.205942,-74770.920605
279.274561,2072.576638,-2220.617826,-75690.235202
279.277063,5625.565159,-12583.501014,-79980.369991
279.279566,-2368.659014,-8142.265362,-75383.797003
279.282069,-4293.194464,-13619.789333,-79520.712692
279.284572,4737.318029,-11695.253884,-77528.864398
279.287074,1036.288319,888.247130,-75843.454302
279.289577,7254.018232,4589.276840,-74311.263306
279.292080,-2368.659014,-10510.924376,-76456.330700
279.294582,5773.606348,-3256.906145,-76762.768900
279.297085,1184.329507,-8586.388927,-73391.948708
279.299588,-12879.583391,-34345.555709,-82891.532884
279.302091,17172.777854,7846.182985,-72012.976812
279.304593,12435.459826,17764.942608,-75690.235202
279.307096,-740.205942,7698.141797,-80133.589091
279.309599,888.247130,5033.400406,-76303.111601
279.312101,7105.977043,6809.894666,-76915.987999
279.314604,-24722.878463,-5773.606348,-82431.875585
279.317107,20133.601622,-3552.988522,-87334.886772
279.319610,-9770.718434,6069.688724,-70480.785816
279.322112,4145.153275,-4589.276840,-81359.341888
279.324615,13471.748144,12879.583391,-72625.853210
279.327118,3849.070898,8290.306550,-70174.347617
279.329621,-11251.130318,-5921.647536,-79061.055394
279.332123,6217.729913,-3849.070898,-80593.246390
279.334626,3849.070898,6217.729913,-74004.825107
279.337129,-296.082377,-592.164754,-78448.178995
279.339631,3849.070898,-740.205942,-78294.959896
279.342134,3701.029710,6069.688724,-75537.016103
279.344653,740.205942,3701.029710,-75230.577904
279.347172,0.000000,-5329.482782,-80899.684589
279.349690,5477.523971,1924.535449,-77682.083497
279.352209,-4737.318029,7846.182985,-77069.207099
279.354728,1628.453072,-5329.482782,-80593.246390
279.357246,12731.542202,1776.494261,-74464.482406
279.359765,-18209.066173,17024.736666,-75230.577904
279.362284,19837.519246,-8438.347739,-76149.892501
279.364802,-9918.759623,0.000000,-79214.274493
279.367321,-592.164754,-148.041188,-74617.701505
279.369840,14211.954086,-2812.782580,-71246.881314
279.372358,9622.677246,-1628.453072,-70787.224015
279.374877,-24426.796086,740.205942,-73238.729609
279.377396,19985.560434,-23834.631332,-83810.847481
279.379914,3552.988522,-12583.501014,-74158.044206
279.382433,-16728.654289,-9326.594869,-76303.111601
279.384952,22798.343014,-11251.130318,-72625.853210
279.387470,-5477.523971,3552.988522,-78448.178995
279.389989,2368.659014,3256.906145,-76915.987999
279.392508,13027.624579,-13915.871710,-79673.931792
279.395026,2220.617826,-15396.283594,-80440.027290
279.397545,-444.123565,-9474.636058,-75537.016103
279.400064,5033.400406,-6957.935855,-76149.892501
279.402582,1776.494261,-6217.729913,-79061.055394
279.405101,-148.041188,-5773.606348,-76456.330700
279.407620,11399.171507,-15396.283594,-80286.808190
279.410138,-2960.823768,-4885.359217,-72012.976812
279.412657,-5477.523971,-13471.748144,-76609.549800
279.415176,1480.411884,-7105.977043,-76456.330700
279.417694,9622.677246,4145.153275,-76762.768900
279.420213,6661.853478,-1332.370696,-75077.358804
279.422732,-296.082377,-10510.924376,-77835.302597
279.425250,-5329.482782,-9178.553681,-77682.083497
279.427769,296.082377,-17912.983796,-76303.111601
279.430288,6661.853478,6365.771101,-73698.386908
279.432806,-1924.535449,-14359.995275,-78448.178995
279.435325,16136.489536,8438.347739,-81206.122788
279.437844,-3849.070898,13915.871710,-77528.864398
279.440362,-14063.912898,-14508.036463,-87947.763170
279.442881,5329.482782,6661.853478,-75996.673402
279.445369,13027.624579,12139.377449,-72779.072310
279.447857,-15396.283594,-4885.359217,-77835.302597
279.450346,20725.766376,296.082377,-75843.454302
279.452834,-10658.965565,5181.441594,-73851.606007
279.455322,-296.082377,-3404.947333,-81052.903688
279.457810,7550.100608,6809.894666,-72166.195912
279.460298,-2960.823768,-2960.823768,-79214.274493
279.462786,-740.205942,2664.741391,-77528.864398
279.465275,2220.617826,1036.288319,-77222.426198
279.467763,1628.453072,2072.576638,-76762.768900
279.470251,-5181.441594,-5033.400406,-81972.218286
279.472739,4589.276840,444.123565,-77528.864398
279.475227,3256.906145,9178.553681,-72932.291410
279.477715,888.247130,2220.617826,-77682.083497
279.480204,-1628.453072,5329.482782,-77682.083497
279.482692,1036.288319,740.205942,-78294.959896
279.485180,6513.812290,-296.082377,-76149.892501
279.487668,-12435.459826,12583.501014,-78601.398095
279.490156,19689.478057,-9474.636058,-76456.330700
279.492644,-9326.594869,-4589.276840,-81818.999186
279.495132,-444.123565,3404.947333,-72625.853210
279.497621,12583.501014,-4589.276840,-73698.386908
279.500109,-21317.931130,5329.482782,-76303.111601
279.502597,7698.141797,-15100.201217,-79214.274493
279.505085,17024.736666,-30792.567187,-90092.830565
279.507573,-4293.194464,-15100.201217,-70940.443115
279.510061,-15396.283594,-8734.430116,-76456.330700
279.512550,23834.631332,-15396.283594,-77528.864398
279.515038,-9622.677246,2516.700203,-77528.864398
279.517526,6365.771101,2664.741391,-76149.892501
279.520014,8734.430116,-9622.677246,-78448.178995
279.522502,-11399.171507,-8882.471304,-77988.521696
279.524990,8438.347739,-11695.253884,-74924.139704
279.527479,5181.441594,-3108.864956,-72012.976812
279.529967,-2220.617826,-592.164754,-74617.701505
279.532455,1924.535449,-10510.924376,-76762.768900
279.534943,9326.594869,-14359.995275,-78754.617194
279.537431,-11251.130318,-11103.089130,-76762.768900
279.539919,-1036.288319,-9030.512492,-78754.617194
279.542408,6809.894666,-592.164754,-75537.016103
279.544874,1776.494261,888.247130,-76149.892501
279.547340,6957.935855,-6069.688724,-79214.274493
279.549806,2960.823768,-6661.853478,-74924.139704
279.552273,-7254.018232,-7698.141797,-74924.139704
279.554739,-13619.789333,-35381.844028,-84423.723880
279.557205,7846.182985,-9622.677246,-80133.589091
279.559671,0.000000,12583.501014,-73391.948708
279.562138,2516.700203,8882.471304,-78141.740796
279.564604,8734.430116,11547.212695,-73698.386908
279.567070,-2664.741391,6661.853478,-74464.482406
279.569536,-21021.848753,-5477.523971,-82125.437386
279.572003,20281.642811,2368.659014,-82278.656485
279.574469,-2516.700203,3701.029710,-73698.386908
279.576935,-9326.594869,-8142.265362,-82278.656485
279.579401,18801.230927,6957.935855,-70787.224015
279.581868,2516.700203,5329.482782,-71553.319513
279.584334,-6365.771101,-2664.741391,-79520.712692
279.586800,4737.318029,-1332.370696,-78294.959896
279.589266,148.041188,6217.729913,-74924.139704
279.591733,3552.988522,0.000000,-78294.959896
279.594199,592.164754,-1332.370696,-77682.083497
279.596665,-148.041188,3108.864956,-75690.235202
279.599131,1480.411884,9918.759623,-75077.358804
279.601598,592.164754,1332.370696,-77528.864398
279.604064,-3701.029710,7254.018232,-76149.892501
279.606530,0.000000,-2516.700203,-79367.493593
279.608996,6809.894666,-7402.059420,-82278.656485
279.611463,-5773.606348,13175.665768,-76915.987999
279.613929,16876.695478,-2516.700203,-74464.482406
279.616395,-14211.954086,1628.453072,-73391.948708
279.618861,8882.471304,6069.688724,-74770.920605
279.621328,9030.512492,1332.370696,-69561.471218
279.623794,-13915.871710,5477.523971,-73698.386908
279.626260,-2812.782580,-14211.954086,-78141.740796
279.628726,21465.972318,-34345.555709,-88407.420469
279.631193,-17912.983796,296.082377,-73085.510509
279.633659,-740.205942,-6661.853478,-79673.931792
279.636125,13175.665768,-13471.748144,-81206.122788
279.638591,-12435.459826,1036.288319,-77835.302597
279.641058,10214.842000,1332.370696,-77528.864398
279.643550,11991.336260,-8586.388927,-78448.178995
279.646043,-8882.471304,-10066.800811,-76762.768900
279.648535,3404.947333,-10510.924376,-76915.987999
279.651027,7846.182985,-9326.594869,-75996.673402
279.653520,-2664.741391,-8586.388927,-77222.426198
279.656012,4293.194464,-4737.318029,-74464.482406
279.658505,5181.441594,-13323.706956,-76915.987999
279.660997,-7402.059420,-13767.830521,-77375.645298
279.663489,-6069.688724,-6513.812290,-77528.864398
279.665982,8882.471304,1776.494261,-77069.207099
279.668474,5181.441594,-1480.411884,-79520.712692
279.670966,-5181.441594,-11843.295072,-76762.768900
279.673459,10214.842000,-6809.894666,-74158.044206
279.675951,1480.411884,-13323.706956,-73698.386908
279.678444,-10955.047942,-28127.825796,-83197.971083
279.680936,8290.306550,-7698.141797,-78294.959896
279.683428,-888.247130,13175.665768,-73391.948708
279.685921,-5181.441594,11843.295072,-81665.780087
279.688413,3701.029710,-2220.617826,-77835.302597
279.690906,11547.212695,15396.283594,-71706.538613
279.693398,-15988.448347,1924.535449,-78754.617194
279.695890,13323.706956,-10955.047942,-83197.971083
279.698383,-1036.288319,2960.823768,-73851.606007
279.700875,-6513.812290,-5921.647536,-81972.218286
279.703368,16284.530724,4885.359217,-70787.224015
279.705860,444.123565,-888.247130,-76762.768900
279.708352,-1628.453072,-2072.576638,-80440.027290
279.710845,-1924.535449,-296.082377,-79367.493593
279.713337,592.164754,888.247130,-75537.016103
279.715830,3256.906145,-444.123565,-79827.150892
279.718322,1036.288319,-4145.153275,-81052.903688
279.720814,1184.329507,148.041188,-79214.274493
279.723307,4293.194464,11547.212695,-72012.976812
279.725799,-6957.935855,7105.977043,-75690.235202
279.728292,7698.141797,1036.288319,-77222.426198
279.730784,8438.347739,-2072.576638,-76762.768900
279.733276,-296.082377,6069.688724,-77375.645298
279.735769,4145.153275,9326.594869,-74004.825107
279.738261,-15100.201217,4885.359217,-75690.235202
279.740754,13619.789333,-5773.606348,-82891.532884
279.743225,740.205942,-17024.736666,-78448.178995
279.745698,2516.700203,2072.576638,-77069.207099
279.748170,19985.560434,-10510.924376,-71246.881314
279.750643,-14211.954086,-4145.153275,-69561.471218
279.753115,-11103.089130,4885.359217,-68029.280222
279.755588,21169.889941,-21021.848753,-75690.235202
279.758060,-9326.594869,-9770.718434,-74158.044206
279.760533,3849.070898,3256.906145,-70940.443115
279.763005,6217.729913,-2220.617826,-78294.959896
279.765478,-7994.224174,3701.029710,-77528.864398
279.767950,1924.535449,-8290.306550,-76456.330700
279.770423,2220.617826,-10362.883188,-79061.055394
279.772895,-3701.029710,-5773.606348,-75843.454302
279.775368,2220.617826,296.082377,-73391.948708
279.777841,10807.006753,-14804.118840,-76915.987999
279.780313,-6809.894666,-19541.436869,-83657.628382
279.782786,2664.741391,-12139.377449,-76609.549800
279.785258,1332.370696,-6365.771101,-74004.825107
279.787731,-1924.535449,3701.029710,-73851.606007
279.790203,7254.018232,2516.700203,-77375.645298
279.792676,296.082377,-15100.201217,-83044.751983
279.795148,4737.318029,-6661.853478,-76609.549800
279.797621,6809.894666,-11103.089130,-72012.976812
279.800093,-9474.636058,-25759.166782,-81206.122788
279.802566,-2812.782580,-11399.171507,-81818.999186
279.805039,6513.812290,17320.819043,-72472.634111
279.807511,2664.741391,4737.318029,-80899.684589
279.809984,3701.029710,8586.388927,-74617.701505
279.812456,2664.741391,9178.553681,-74004.825107
279.814929,-19245.354492,-5921.647536,-80440.027290
279.817401,15248.242405,6661.853478,-79827.150892
279.819874,-9770.718434,6661.853478,-71859.757712
279.822346,-9326.594869,-6957.935855,-82125.437386
279.824819,15544.324782,4441.235652,-74311.263306
279.827291,2220.617826,1628.453072,-76456.330700
279.829764,-5921.647536,-7550.100608,-82125.437386
279.832236,2664.741391,-3108.864956,-81206.122788
279.834709,3849.070898,2516.700203,-77528.864398
279.837182,-2664.741391,6809.894666,-72012.976812
279.839654,1036.288319,-1036.288319,-78448.178995
279.842153,3701.029710,148.041188,-79214.274493
279.844651,2812.782580,8586.388927,-73851.606007
279.847150,-3997.112087,6661.853478,-76915.987999
279.849649,444.123565,-3256.906145,-79520.712692
279.852147,6809.894666,-2368.659014,-78448.178995
279.854646,-1776.494261,11103.089130,-76149.892501
279.857145,14063.912898,-296.082377,-75996.673402
279.859643,-21762.054695,9178.553681,-74924.139704
279.862142,11547.212695,3849.070898,-77069.207099
279.864641,8586.388927,-5921.647536,-73085.510509
279.867139,-19393.395680,3404.947333,-76915.987999
279.869638,5477.523971,-18505.148550,-79367.493593
279.872137,15544.324782,-27239.578666,-83504.409282
279.874635,-19393.395680,6365.771101,-72012.976812
279.877134,12139.377449,-7402.059420,-73851.606007
279.879633,4737.318029,-7105.977043,-79980.369991
279.882131,-13619.789333,3404.947333,-76149.892501
279.884630,13323.706956,-5625.565159,-79214.274493
279.887129,5773.606348,-4441.235652,-77222.426198
279.889627,-10510.924376,-8290.306550,-78754.617194
279.892126,11991.336260,-9178.553681,-73851.606007
279.894624,-592.164754,-1332.370696,-73545.167808
279.897123,888.247130,-8290.306550,-74617.701505
279.899622,8438.347739,-7698.141797,-74924.139704
279.902120,-5181.441594,-11103.089130,-75843.454302
279.904619,592.164754,-9178.553681,-76762.768900
279.907118,3701.029710,-3701.029710,-75537.016103
279.909616,4885.359217,-2812.782580,-77375.645298
279.912115,-1628.453072,-9030.512492,-79061.055394
279.914614,14508.036463,-1332.370696,-75843.454302
279.917112,-7550.100608,-6513.812290,-72779.072310
279.919611,-8882.471304,-33309.267390,-78601.398095
279.922110,22206.178260,7105.977043,-70940.443115
279.924608,-19689.478057,5625.565159,-71706.538613
279.927107,18801.230927,7698.141797,-82738.313784
279.929606,888.247130,21910.095883,-69714.690318
279.932104,-9178.553681,-1332.370696,-77988.521696
279.934603,-16432.571912,-3404.947333,-80133.589091
279.937102,23538.548956,13027.624579,-76609.549800
279.939600,-19837.519246,-592.164754,-76303.111601
279.942121,16284.530724,-5921.647536,-82891.532884
279.944641,1480.411884,4737.318029,-71093.662214
279.947161,-10066.800811,-6957.935855,-81972.218286
279.949681,10807.006753,3108.864956,-72472.634111
279.952201,148.041188,12879.583391,-74924.139704
279.954722,296.082377,6513.812290,-75230.577904
279.957242,444.123565,-1480.411884,-81052.903688
279.959762,3108.864956,-2368.659014,-79673.931792
279.962282,4145.153275,-2072.576638,-80899.684589
279.964803,-1924.535449,9178.553681,-76456.330700
279.967323,1480.411884,7402.059420,-75996.673402
279.969843,-2368.659014,-1332.370696,-75230.577904
279.972363,5033.400406,-4145.153275,-77682.083497
279.974884,-148.041188,10214.842000,-77375.645298
279.977404,12139.377449,-4589.276840,-77222.426198
279.979924,592.164754,-3404.947333,-81972.218286
279.982444,-1184.329507,-2516.700203,-73085.510509
279.984964,10955.047942,888.247130,-70327.566716
279.987485,-2220.617826,296.082377,-69408.252119
279.990005,-16580.613101,-11843.295072,-77835.302597
279.992525,28127.825796,-31680.814318,-85649.476676
279.995045,-10066.800811,-3849.070898,-73085.510509
279.997566,-5773.606348,-6069.688724,-82125.437386
280.000086,20873.807564,-10955.047942,-70174.347617
280.002606,4293.194464,-4589.276840,-77222.426198
280.005126,-9474.636058,3849.070898,-77528.864398
280.007647,11695.253884,-9770.718434,-77222.426198
280.010167,-6661.853478,-12287.418637,-76303.111601
280.012687,4293.194464,-6513.812290,-73545.167808
280.015207,6069.688724,-5033.400406,-73238.729609
280.017728,-4737.318029,-11547.212695,-76915.987999
280.020248,3108.864956,-8438.347739,-75077.358804
280.022768,3108.864956,-13471.748144,-76303.111601
280.025288,-2516.700203,-5033.400406,-75537.016103
280.027808,-5033.400406,2072.576638,-77222.426198
280.030329,12435.459826,-4885.359217,-78294.959896
280.032849,-4293.194464,-10214.842000,-76762.768900
280.035369,-1480.411884,-5477.523971,-77375.645298
280.037889,10214.842000,-15544.324782,-74158.044206
280.040410,-2072.576638,-9770.718434,-76149.892501
280.042947,-2960.823768,-16876.695478,-83197.971083
280.045485,9770.718434,15396.283594,-77988.521696
280.048023,-6365.771101,17468.860231,-74004.825107
280.050561,-3997.112087,-18801.230927,-87181.667672
280.053099,17024.736666,18949.272115,-69867.909418
280.055637,148.041188,11991.336260,-74464.482406
280.058175,-740.205942,-9770.718434,-80746.465489
280.060713,8882.471304,1480.411884,-75996.673402
280.063250,-9622.677246,-6809.894666,-83197.971083
280.065788,4441.235652,6957.935855,-74464.482406
280.068326,5773.606348,6217.729913,-72012.976812
280.070864,3404.947333,2516.700203,-78294.959896
280.073402,-2960.823768,-5033.400406,-81052.903688
280.075940,2072.576638,3849.070898,-77682.083497
280.078478,3701.029710,5773.606348,-73851.606007
280.081015,148.041188,-3256.906145,-80746.465489
280.083553,5921.647536,5773.606348,-77069.207099
280.086091,-1184.329507,8142.265362,-75537.016103
280.088629,-5625.565159,-4737.318029,-79520.712692
280.091167,7550.100608,888.247130,-74617.701505
280.093705,740.205942,12731.542202,-75537.016103
280.096243,8734.430116,-3404.947333,-78754.617194
280.098780,-4589.276840,4737.318029,-74617.701505
280.101318,3552.988522,6661.853478,-73545.167808
280.103856,4885.359217,-19541.436869,-80899.684589
280.106394,-17616.901420,2516.700203,-78907.836294
280.108932,18505.148550,-25167.002028,-80899.684589
280.111470,2960.823768,-22946.384202,-82585.094684
280.114008,-19245.354492,7550.100608,-69714.690318
280.116545,740.205942,-2516.700203,-78448.178995
280.119083,17764.942608,-18949.272115,-77528.864398
280.121621,-15100.201217,1480.411884,-75537.016103
280.124172,6957.935855,-2960.823768,-78294.959896
280.126723,5181.441594,-3701.029710,-74617.701505
280.129274,-10658.965565,-6217.729913,-76762.768900
280.131824,4441.235652,-12583.501014,-77222.426198
280.134375,3997.112087,-1480.411884,-75383.797003
280.136926,-1924.535449,-12583.501014,-78601.398095
280.139477,4145.153275,-21910.095883,-78754.617194
280.142028,888.247130,-5625.565159,-74464.482406
280.144579,1628.453072,-3108.864956,-76609.549800
280.147129,1924.535449,-6217.729913,-77375.645298
280.149680,5329.482782,-7698.141797,-79673.931792
280.152231,-2516.700203,-8586.388927,-76303.111601
280.154782,-740.205942,-11991.336260,-80133.589091
280.157333,6217.729913,-8882.471304,-70327.566716
280.159883,-2220.617826,-4145.153275,-72472.634111
280.162434,-17764.942608,-10510.924376,-77988.521696
280.164985,27535.661042,2960.823768,-80593.246390
280.167536,-9918.759623,20429.683999,-70480.785816
280.170087,-5773.606348,-19689.478057,-88560.639569
280.172637,16580.613101,19245.354492,-69255.033019
280.175188,2220.617826,14656.077652,-74617.701505
280.177739,296.082377,-6217.729913,-72932.291410
280.180290,8882.471304,-296.082377,-84117.285680
280.182841,-9030.512492,-9622.677246,-76915.987999
280.185392,-4737.318029,-6661.853478,-78754.617194
280.187942,7105.977043,11695.253884,-70787.224015
280.190493,2220.617826,4293.194464,-77682.083497
280.193044,-1776.494261,-3404.947333,-81512.560987
280.195595,888.247130,7994.224174,-74924.139704
280.198146,2516.700203,7550.100608,-75843.454302
280.200696,444.123565,-296.082377,-79367.493593
280.203247,3997.112087,7550.100608,-77222.426198
280.205798,3256.906145,2812.782580,-77988.521696
280.208349,4737.318029,-9326.594869,-78141.740796
280.210900,4293.194464,-444.123565,-77528.864398
280.213450,-4441.235652,18653.189738,-72779.072310
280.216001,-3256.906145,-5773.606348,-82125.437386
280.218552,5329.482782,-1628.453072,-82585.094684
280.221103,2368.659014,-7402.059420,-75230.577904
280.223654,8882.471304,-3849.070898,-73391.948708
280.226215,1184.329507,-1628.453072,-71400.100414
280.228777,-22946.384202,-9474.636058,-78754.617194
280.231339,4885.359217,-11547.212695,-76915.987999
280.233901,12139.377449,-15248.242405,-79980.369991
280.236463,-18061.024985,-4737.318029,-76762.768900
280.239024,14359.995275,-4737.318029,-73545.167808
280.241586,9474.636058,-8142.265362,-89939.611465
280.244148,-13767.830521,9770.718434,-67722.842023
280.246710,9918.759623,-11399.171507,-80746.465489
280.249271,-3404.947333,-9178.553681,-77222.426198
280.251833,-1332.370696,-8882.471304,-77835.302597
280.254395,6217.729913,-14804.118840,-77375.645298
280.256957,-2072.576638,-10510.924376,-76915.987999
280.259518,-2516.700203,-6217.729913,-73851.606007
280.262080,10658.965565,-9178.553681,-77222.426198
280.264642,-1776.494261,-1480.411884,-75537.016103
280.267204,0.000000,-3701.029710,-77988.521696
280.269766,-444.123565,-14656.077652,-79367.493593
280.272327,4737.318029,-3404.947333,-76609.549800
280.274889,9178.553681,-4145.153275,-71400.100414
280.277451,-1184.329507,1628.453072,-74004.825107
280.280013,-5625.565159,-17468.860231,-78907.836294
280.282574,17468.860231,4589.276840,-91012.145162
280.285136,-10955.047942,15396.283594,-80593.246390
280.287698,5625.565159,-6661.853478,-80440.027290
280.290260,11399.171507,23538.548956,-66190.651027
280.292821,-21021.848753,4885.359217,-80440.027290
280.295383,17468.860231,-9474.636058,-83810.847481
280.297945,592.164754,6957.935855,-70940.443115
280.300507,-7846.182985,-8438.347739,-78141.740796
280.303069,4885.359217,-444.123565,-73545.167808
280.305630,8438.347739,10510.924376,-72779.072310
280.308192,-3701.029710,3404.947333,-75537.016103
280.310754,2368.659014,1184.329507,-80133.589091
280.313316,3256.906145,0.000000,-77988.521696
280.315877,-1480.411884,-1480.411884,-78907.836294
280.318439,3701.029710,5773.606348,-78141.740796
280.321001,444.123565,10955.047942,-74158.044206
280.323563,-1776.494261,2368.659014,-77375.645298
280.326124,1184.329507,-3404.947333,-75843.454302
280.328657,6365.771101,3701.029710,-74464.482406
280.331189,-6957.935855,12287.418637,-75077.358804
280.333721,-1184.329507,-2960.823768,-80440.027290
280.336254,7402.059420,740.205942,-81206.122788
280.338786,1332.370696,-11991.336260,-79061.055394
280.341318,7846.182985,1184.329507,-74158.044206
280.343851,4885.359217,-5625.565159,-71400.100414
280.346383,-11399.171507,-9918.759623,-68335.718422
280.348915,3997.112087,-5477.523971,-73545.167808
280.351448,12435.459826,-13323.706956,-75843.454302
280.353980,-15840.407159,-7550.100608,-78907.836294
280.356512,9770.718434,3404.947333,-71093.662214
280.359045,7698.141797,888.247130,-79214.274493
280.361577,-13027.624579,2960.823768,-74924.139704
280.364109,10214.842000,-12139.377449,-78294.959896
280.366642,-1332.370696,-10658.965565,-78907.836294
280.369174,-3256.906145,-5477.523971,-75537.016103
280.371706,2664.741391,-16432.571912,-80133.589091
280.374239,-148.041188,-9918.759623,-75383.797003
280.376771,-444.123565,-3256.906145,-76762.768900
280.379303,7254.018232,-5329.482782,-76609.549800
280.381836,1480.411884,-7254.018232,-78907.836294
280.384368,-5477.523971,-10214.842000,-78141.740796
280.386900,10066.800811,-7402.059420,-77222.426198
280.389433,-5477.523971,-6809.894666,-76915.987999
280.391965,-19245.354492,-22798.343014,-82891.532884
280.394497,15988.448347,-2960.823768,-77375.645298
280.397030,-3997.112087,5625.565159,-76609.549800
280.399562,4589.276840,12583.501014,-71246.881314
280.402094,9178.553681,9918.759623,-76762.768900
280.404627,-12583.501014,-1776.494261,-76456.330700
280.407159,-8734.430116,-2664.741391,-80593.246390
280.409691,25759.166782,10658.965565,-75230.577904
280.412224,-24574.837274,3256.906145,-74464.482406
280.414756,-1480.411884,1036.288319,-71553.319513
280.417288,12287.418637,-3108.864956,-75383.797003
280.419821,-9178.553681,740.205942,-75537.016103
280.422353,1332.370696,-2072.576638,-79367.493593
280.424885,7402.059420,1924.535449,-78141.740796
280.427418,2516.700203,3701.029710,-77069.207099
280.429965,-3108.864956,-444.123565,-79980.369991
280.432512,4885.359217,10066.800811,-71859.757712
280.435059,-1776.494261,5921.647536,-76149.892501
280.437606,-2220.617826,592.164754,-78294.959896
280.440153,3256.906145,-3849.070898,-78601.398095
280.442700,4737.318029,6365.771101,-73391.948708
280.445247,-6957.935855,10510.924376,-77069.207099
280.447794,5477.523971,-7402.059420,-80286.808190
280.450341,3701.029710,-444.123565,-80746.465489
280.452888,0.000000,-4293.194464,-76149.892501
280.455435,5773.606348,2516.700203,-73238.729609
280.457982,1480.411884,-3849.070898,-73545.167808
280.460529,-16728.654289,-7105.977043,-69408.252119
280.463077,9178.553681,-14211.954086,-77222.426198
280.465624,9622.677246,-14508.036463,-76456.330700
280.468171,-16580.613101,-5181.441594,-76456.330700
280.470718,14211.954086,-2664.741391,-77988.521696
280.473265,7550.100608,-1480.411884,-75996.673402
280.475812,-8438.347739,5625.565159,-77222.426198
280.478359,6661.853478,-7402.059420,-78601.398095
280.480906,-592.164754,-8290.306550,-80133.589091
280.483453,0.000000,-2664.741391,-74158.044206
280.486000,-2516.700203,-16580.613101,-82278.656485
280.488547,1480.411884,-11843.295072,-77835.302597
280.491094,3997.112087,-5921.647536,-74617.701505
280.493641,1332.370696,-5329.482782,-77222.426198
280.496188,2516.700203,-3997.112087,-78294.959896
280.498736,-3108.864956,-13175.665768,-78448.178995
280.501283,6957.935855,-5477.523971,-74924.139704
280.503830,-3256.906145,-4145.153275,-76303.111601
280.506377,-16136.489536,-23242.466579,-82125.437386
280.508924,11103.089130,-3701.029710,-76149.892501
280.511471,-1776.494261,11399.171507,-67109.965625
280.514018,2368.659014,7105.977043,-85189.819378
280.516565,8882.471304,13175.665768,-74464.482406
280.519112,-13175.665768,-2220.617826,-82125.437386
280.521659,-6217.729913,-1628.453072,-80440.027290
280.524206,18801.230927,11251.130318,-77222.426198
280.526753,-15692.365970,-2368.659014,-80440.027290
280.529300,-148.041188,-4589.276840,-76762.768900
280.531859,11103.089130,-296.082377,-74464.482406
280.534418,-5181.441594,-592.164754,-77069.207099
280.536977,-888.247130,-2368.659014,-80440.027290
280.539536,9918.759623,2812.782580,-74924.139704
280.542095,2516.700203,2368.659014,-80899.684589
280.544654,-3404.947333,2812.782580,-79827.150892
280.547213,7698.141797,5477.523971,-75690.235202
280.549772,-4885.359217,7846.182985,-76915.987999
280.552331,-2072.576638,-148.041188,-77222.426198
280.554890,4589.276840,-2960.823768,-77988.521696
280.557449,2072.576638,8586.388927,-74464.482406
280.560008,-1184.329507,5625.565159,-75230.577904
280.562567,-1924.535449,-1036.288319,-77988.521696
280.565126,6661.853478,2072.576638,-79980.369991
280.567685,-1184.329507,-14359.995275,-79061.055394
280.570244,-1184.329507,740.205942,-87181.667672
280.572803,17616.901420,-14508.036463,-78754.617194
280.575361,4293.194464,-19837.519246,-76456.330700
280.577920,-16136.489536,3552.988522,-70940.443115
280.580479,24130.713709,-17320.819043,-73391.948708
280.583038,-7402.059420,-9918.759623,-75996.673402
280.585597,-10214.842000,3997.112087,-68029.280222
280.588156,22946.384202,-13915.871710,-89786.392366
280.590715,-6513.812290,4441.235652,-65730.993728
280.593274,-8142.265362,-1924.535449,-77835.302597
280.595833,8142.265362,-9030.512492,-76609.549800
280.598392,3997.112087,-9030.512492,-76303.111601
280.600951,-2072.576638,-8882.471304,-74158.044206
280.603510,3997.112087,-20873.807564,-81052.903688
280.606069,2664.741391,-8882.471304,-76149.892501
280.608628,5477.523971,-1036.288319,-74770.920605
280.611187,1332.370696,-9918.759623,-76149.892501
280.613746,0.000000,-6809.894666,-74617.701505
280.616305,-4441.235652,-6365.771101,-78907.836294
280.618864,12287.418637,-11695.253884,-76762.768900
280.621423,13767.830521,17320.819043,-66497.089226
280.623982,-20873.807564,-8586.388927,-84883.381178
280.626540,25611.125593,1776.494261,-77375.645298
280.629099,-5625.565159,15544.324782,-76149.892501
280.631658,-13767.830521,-10510.924376,-82431.875585
280.634226,27535.661042,14359.995275,-72779.072310
280.636794,-3404.947333,22650.301825,-66956.746525
280.639362,-1776.494261,-12731.542202,-86722.010374
280.641929,17468.860231,2960.823768,-76762.768900
280.644497,-2664.741391,-3849.070898,-76149.892501
280.647065,-7698.141797,-5477.523971,-73391.948708
280.649632,12287.418637,6069.688724,-72779.072310
280.652200,-1332.370696,3997.112087,-75537.016103
280.654768,-3256.906145,740.205942,-81512.560987
280.657335,5625.565159,2368.659014,-77069.207099
280.659903,1184.329507,11103.089130,-75690.235202
280.662471,-1184.329507,6513.812290,-77375.645298
280.665039,4885.359217,-296.082377,-78294.959896
280.667606,4145.153275,-5033.400406,-79061.055394
280.670174,3108.864956,6809.894666,-74004.825107
280.672742,-2516.700203,9030.512492,-74924.139704
280.675309,-7994.224174,-3108.864956,-79827.150892
280.677877,11695.253884,1628.453072,-78294.959896
280.680445,740.205942,-12879.583391,-79214.274493
280.683013,2072.576638,3404.947333,-76609.549800
280.685580,12731.542202,-7994.224174,-72472.634111
280.688148,-19245.354492,-9622.677246,-70174.347617
280.690716,-3997.112087,-2516.700203,-71859.757712
280.693283,24722.878463,-15692.365970,-72779.072310
280.695851,-19689.478057,-10362.883188,-79673.931792
280.698419,4293.194464,-888.247130,-76456.330700
280.700986,13027.624579,-3997.112087,-74924.139704
280.703554,-10510.924376,10214.842000,-71553.319513
280.706122,2664.741391,-10066.800811,-74004.825107
280.708690,2960.823768,-6069.688724,-79827.150892
280.711257,-2072.576638,-3256.906145,-74924.139704
280.713825,-592.164754,-10807.006753,-74004.825107
280.716393,-740.205942,-22206.178260,-79827.150892
280.718960,6217.729913,-4885.359217,-74617.701505
280.721528,2960.823768,-888.247130,-75690.235202
280.724096,-3997.112087,-13767.830521,-77069.207099
280.726664,9770.718434,-3552.988522,-73851.606007
280.729231,-8882.471304,-8290.306550,-79673.931792
280.731799,9622.677246,-20577.725188,-78294.959896
280.734367,9178.553681,18505.148550,-72625.853210
280.736941,-23538.548956,9622.677246,-69561.471218
280.739516,16284.530724,1332.370696,-84883.381178
280.742091,4885.359217,17912.983796,-68335.718422
280.744666,-15544.324782,-18505.148550,-85036.600278
280.747241,10362.883188,10658.965565,-73698.386908
280.749816,14804.118840,22206.178260,-70327.566716
280.752391,-12435.459826,-1628.453072,-80899.684589
280.754966,13619.789333,-1776.494261,-77682.083497
280.757541,-4589.276840,-6957.935855,-74004.825107
280.760115,-7698.141797,-8882.471304,-78601.398095
280.762690,7254.018232,1776.494261,-80746.465489
280.765265,3404.947333,3552.988522,-77375.645298
280.767840,444.123565,3552.988522,-80440.027290
280.770415,3701.029710,3997.112087,-75843.454302
280.772990,888.247130,7105.977043,-76303.111601
280.775565,0.000000,3997.112087,-77375.645298
280.778140,3849.070898,740.205942,-76609.549800
280.780715,-148.041188,296.082377,-77222.426198
280.783290,-8438.347739,13619.789333,-76149.892501
280.785865,14359.995275,-8142.265362,-79673.931792
280.788440,-3108.864956,-3849.070898,-76609.549800
280.791015,296.082377,13323.706956,-73391.948708
280.793590,8290.306550,4441.235652,-70787.224015
280.796165,-12139.377449,740.205942,-77069.207099
280.798740,-7994.224174,-17024.736666,-78754.617194
280.801315,27535.661042,-33753.390955,-83657.628382
280.803890,-24722.878463,-1924.535449,-72625.853210
280.806465,-21169.889941,-5921.647536,-74617.701505
280.809040,30792.567187,-12731.542202,-79061.055394
280.811615,-592.164754,148.041188,-76762.768900
280.814190,-5625.565159,1332.370696,-74311.263306
280.816765,10214.842000,-14508.036463,-75690.235202
280.819340,-2812.782580,-6809.894666,-80286.808190
280.821915,-1184.329507,-592.164754,-73851.606007
280.824490,1776.494261,-19245.354492,-80746.465489
280.827065,-148.041188,-10807.006753,-76303.111601
280.829639,6069.688724,-2368.659014,-72932.291410
280.832214,2960.823768,-1628.453072,-73851.606007
280.834789,-1036.288319,-17320.819043,-80286.808190
280.837364,7105.977043,-4885.359217,-76609.549800
280.839945,-4885.359217,-9030.512492,-79673.931792
280.842526,8290.306550,-20133.601622,-78448.178995
280.845107,7402.059420,18505.148550,-70787.224015
280.847688,-12879.583391,-15544.324782,-79673.931792
280.850269,17912.983796,7846.182985,-79061.055394
280.852850,4145.153275,21465.972318,-67109.965625
280.855430,-13915.871710,-20281.642811,-89326.735067
280.858011,7698.141797,14804.118840,-71400.100414
280.860592,13915.871710,20577.725188,-72319.415011
280.863173,-10066.800811,-3256.906145,-80133.589091
280.865754,7402.059420,1036.288319,-80133.589091
280.868335,-444.123565,-6661.853478,-78448.178995
280.870916,-4589.276840,-1628.453072,-75843.454302
280.873497,9474.636058,5181.441594,-73085.510509
280.876077,-3701.029710,2072.576638,-82431.875585
280.878658,740.205942,296.082377,-77069.207099
280.881239,3997.112087,7402.059420,-78294.959896
280.883820,-592.164754,9474.636058,-75230.577904
280.886401,-296.082377,-148.041188,-80286.808190
280.888982,9474.636058,592.164754,-74770.920605
280.891563,-1628.453072,740.205942,-77069.207099
280.894144,-6365.771101,11103.089130,-76609.549800
280.896724,18949.272115,-6809.894666,-75230.577904
280.899305,-9030.512492,-7402.059420,-80440.027290
280.901886,888.247130,2664.741391,-74770.920605
280.904467,7698.141797,7698.141797,-69714.690318
280.907048,-14508.036463,-888.247130,-74617.701505
280.909629,-1776.494261,-21762.054695,-79367.493593
280.912210,23686.590144,-27831.743419,-81512.560987
280.914791,-23834.631332,-148.041188,-69867.909418
280.917371,5329.482782,-9326.594869,-77682.083497
280.919952,12287.418637,-12287.418637,-79367.493593
280.922533,-1776.494261,-148.041188,-73851.606007
280.925114,-4589.276840,6957.935855,-76762.768900
280.927695,7402.059420,-8438.347739,-77988.521696
280.930276,-148.041188,-9474.636058,-79673.931792
280.932857,740.205942,2516.700203,-72472.634111
280.935438,-148.041188,-18949.272115,-81359.341888
280.938018,-2812.782580,-14211.954086,-78754.617194
280.940599,11547.212695,-3552.988522,-72012.976812
280.943184,1776.494261,-7846.182985,-75537.016103
280.945768,-7105.977043,-17468.860231,-78601.398095
280.948352,12435.459826,-1924.535449,-74004.825107
280.950936,-2368.659014,-3701.029710,-75843.454302
280.953520,-10362.883188,-32865.143825,-83810.847481
280.956105,29460.196492,14804.118840,-66497.089226
280.958689,-25759.166782,9178.553681,-68795.375720
280.961273,18061.024985,4145.153275,-81512.560987
280.963857,-1480.411884,19689.478057,-66650.308326
280.966442,-15248.242405,-22058.137072,-88560.639569
280.969026,-12139.377449,-3552.988522,-79061.055394
280.971610,28275.866984,17912.983796,-73238.729609
280.974194,-19393.395680,7254.018232,-74158.044206
280.976778,6365.771101,-6365.771101,-78294.959896
280.979363,4589.276840,6217.729913,-68335.718422
280.981947,-7402.059420,-9326.594869,-78141.740796
280.984531,7105.977043,4885.359217,-77069.207099
280.987115,2664.741391,4145.153275,-76456.330700
280.989700,-2516.700203,-296.082377,-81665.780087
280.992284,-2368.659014,11695.253884,-78754.617194
280.994868,7254.018232,9030.512492,-75537.016103
280.997452,-7254.018232,-5921.647536,-81359.341888
281.000036,5921.647536,-296.082377,-77528.864398
281.002621,6957.935855,10510.924376,-74770.920605
281.005205,-8882.471304,9474.636058,-76303.111601
281.007789,-8290.306550,-148.041188,-77375.645298
281.010373,17616.901420,-8290.306550,-83504.409282
281.012958,-1776.494261,-12879.583391,-77835.302597
281.015542,-14359.995275,-2072.576638,-83044.751983
281.018126,29164.114115,-21317.931130,-78448.178995
281.020710,-12287.418637,-13175.665768,-71859.757712
281.023294,-2220.617826,-1036.288319,-71093.662214
281.025879,23686.590144,-19245.354492,-74770.920605
281.028463,-22058.137072,-7402.059420,-77375.645298
281.031047,5181.441594,1480.411884,-75230.577904
281.033631,10955.047942,-14211.954086,-79827.150892
281.036216,-9326.594869,3997.112087,-74158.044206
281.038800,-13915.871710,6365.771101,-75230.577904
281.041384,5477.523971,-9622.677246,-76762.768900
281.043968,296.082377,-12139.377449,-78141.740796
281.046555,2368.659014,-2960.823768,-71859.757712
281.049142,6513.812290,-10955.047942,-74158.044206
281.051729,-1480.411884,-13915.871710,-78294.959896
281.054316,3849.070898,-12731.542202,-77069.207099
281.056903,-592.164754,-11547.212695,-75537.016103
281.059490,-4589.276840,-6513.812290,-77835.302597
281.062077,3997.112087,-20281.642811,-77222.426198
281.064664,15840.407159,16876.695478,-70787.224015
281.067251,-14359.995275,-9474.636058,-77682.083497
281.069838,15396.283594,3108.864956,-81972.218286
281.072425,-2368.659014,15840.407159,-75690.235202
281.075012,-7105.977043,-16728.654289,-82278.656485
281.077599,25907.207970,12287.418637,-70327.566716
281.080186,-12139.377449,14952.160028,-73698.386908
281.082773,1924.535449,-12583.501014,-87947.763170
281.085360,13619.789333,-3997.112087,-80286.808190
281.087947,-592.164754,-740.205942,-75077.358804
281.090533,-4441.235652,1036.288319,-76149.892501
281.093120,12879.583391,3552.988522,-71706.538613
281.095707,-5625.565159,-3256.906145,-78601.398095
281.098294,-2220.617826,1924.535449,-79367.493593
281.100881,7698.141797,11103.089130,-76762.768900
281.103468,-1628.453072,3404.947333,-79367.493593
281.106055,592.164754,3404.947333,-77222.426198
281.108642,5773.606348,2368.659014,-77682.083497
281.111229,2960.823768,10066.800811,-74924.139704
281.113816,-3404.947333,7402.059420,-75843.454302
281.116403,-11547.212695,-2812.782580,-77682.083497
281.118990,19689.478057,-6661.853478,-81972.218286
281.121577,-6809.894666,-12583.501014,-77375.645298
281.124164,11399.171507,2516.700203,-75230.577904
281.126751,13323.706956,-9178.553681,-71400.100414
281.129338,-25315.043216,-9474.636058,-72625.853210
281.131925,-6957.935855,-1332.370696,-73545.167808
281.134512,30052.361245,-17024.736666,-72012.976812
281.137099,-21910.095883,-9770.718434,-77222.426198
281.139686,-1332.370696,3701.029710,-73391.948708
281.142273,17912.983796,-7994.224174,-80286.808190
281.144860,-8290.306550,4589.276840,-72625.853210
281.147447,-3552.988522,296.082377,-71706.538613
281.150036,6957.935855,-9326.594869,-78754.617194
281.152625,-1480.411884,-14211.954086,-80133.589091
281.155214,2960.823768,-13619.789333,-75996.673402
281.157804,1184.329507,-4293.194464,-71706.538613
281.160393,6957.935855,-13471.748144,-76609.549800
281.162982,-3701.029710,-14952.160028,-77988.521696
281.165572,3849.070898,-8882.471304,-76303.111601
281.168161,-1480.411884,-8142.265362,-78294.959896
281.170750,-3849.070898,-17172.777854,-75383.797003
281.173339,21614.013506,16284.530724,-68488.937521
281.175929,-17172.777854,-7254.018232,-76303.111601
281.178518,7698.141797,3256.906145,-85036.600278
281.181107,5329.482782,22206.178260,-68029.280222
281.183697,-15100.201217,-19837.519246,-90705.706963
281.186286,4441.235652,12731.542202,-69714.690318
281.188875,17468.860231,18801.230927,-72472.634111
281.191464,-13619.789333,-148.041188,-79673.931792
281.194054,12287.418637,-4145.153275,-80133.589091
281.196643,-4737.318029,1332.370696,-75077.358804
281.199232,-3404.947333,-1628.453072,-74464.482406
281.201821,5773.606348,-148.041188,-76149.892501
281.204411,1628.453072,4737.318029,-73545.167808
281.207000,-2368.659014,3849.070898,-77988.521696
281.209589,2220.617826,13915.871710,-74158.044206
281.212179,3552.988522,5921.647536,-75690.235202
281.214768,3849.070898,-5329.482782,-81052.903688
281.217357,5625.565159,592.164754,-76762.768900
281.219946,-10510.924376,17468.860231,-75077.358804
281.222536,13323.706956,-13619.789333,-83044.751983
281.225125,-5477.523971,-1184.329507,-77528.864398
281.227714,-740.205942,8290.306550,-75383.797003
281.230304,13175.665768,5329.482782,-71093.662214
281.232893,888.247130,-6365.771101,-71859.757712
281.235482,-22206.178260,-8734.430116,-74464.482406
281.238071,29164.114115,-30200.402434,-82585.094684
281.240661,-12879.583391,-8586.388927,-71553.319513
281.243250,-7254.018232,-6069.688724,-76456.330700
281.245839,22650.301825,-13175.665768,-77682.083497
281.248429,-15544.324782,-5773.606348,-78601.398095
281.251018,3849.070898,-592.164754,-75230.577904
281.253608,9770.718434,-3108.864956,-72779.072310
281.256198,1036.288319,-10658.965565,-77988.521696
281.258788,-5921.647536,-5033.400406,-76609.549800
281.261378,2368.659014,-6809.894666,-76456.330700
281.263968,3108.864956,-11251.130318,-75843.454302
281.266558,2960.823768,-15396.283594,-76762.768900
281.269148,3552.988522,-12139.377449,-74158.044206
281.271739,148.041188,-12583.501014,-76915.987999
281.274329,-2960.823768,-2664.741391,-74770.920605
281.276919,-4885.359217,-22354.219448,-77375.645298
281.279509,23982.672521,17616.901420,-69714.690318
281.282099,-24130.713709,-296.082377,-75383.797003
281.284689,23242.466579,888.247130,-86568.791274
281.287279,-5773.606348,22206.178260,-64198.802732
281.289869,-7402.059420,-20725.766376,-89633.173266
281.292459,19245.354492,16284.530724,-70174.347617
281.295049,-5773.606348,16432.571912,-72779.072310
281.297639,-14952.160028,3849.070898,-76303.111601
281.300229,13767.830521,-3849.070898,-79827.150892
281.302820,-4737.318029,6069.688724,-70174.347617
281.305410,-4737.318029,-6513.812290,-78754.617194
281.308000,7402.059420,2960.823768,-74004.825107
281.310590,-6365.771101,740.205942,-75690.235202
281.313180,2368.659014,2368.659014,-78907.836294
281.315770,1924.535449,16580.613101,-72625.853210
281.318360,-1480.411884,3997.112087,-79673.931792
281.320950,7254.018232,-6217.729913,-81206.122788
281.323540,7254.018232,4145.153275,-77375.645298
281.326130,-13471.748144,20577.725188,-74464.482406
281.328720,13767.830521,-10510.924376,-78601.398095
281.331310,-4293.194464,-888.247130,-75690.235202
281.333901,2960.823768,2516.700203,-77069.207099
281.336491,7846.182985,-4737.318029,-73851.606007
281.339081,-19393.395680,1480.411884,-78754.617194
281.341671,8290.306550,-26795.455100,-81972.218286
281.344261,14508.036463,-30200.402434,-87947.763170
281.346851,-14656.077652,-5181.441594,-70327.566716
281.349441,-1628.453072,-6661.853478,-77988.521696
281.352031,17468.860231,-8734.430116,-77528.864398
281.354621,-9178.553681,1036.288319,-77069.207099
281.357212,1184.329507,3701.029710,-79061.055394
281.359802,8586.388927,-8882.471304,-73851.606007
281.362393,-1776.494261,-5329.482782,-75996.673402
281.364984,-2072.576638,-6809.894666,-76303.111601
281.367574,1628.453072,-10362.883188,-79827.150892
281.370165,296.082377,-13619.789333,-76609.549800
281.372755,5773.606348,-8586.388927,-73545.167808
281.375346,-5477.523971,-14804.118840,-76762.768900
281.377937,9770.718434,-10658.965565,-77682.083497
281.380527,-4441.235652,-148.041188,-72779.072310
281.383118,0.000000,-25167.002028,-78294.959896
281.385709,18505.148550,19837.519246,-67722.842023
281.388299,-23982.672521,-2664.741391,-77682.083497
281.390890,25463.084405,3701.029710,-79673.931792
281.393480,7550.100608,21910.095883,-69101.813920
281.396071,-15988.448347,-14508.036463,-86262.353075
281.398662,2220.617826,9474.636058,-76149.892501
281.401252,20281.642811,14804.118840,-71859.757712
281.403843,-13471.748144,148.041188,-77682.083497
281.406433,11399.171507,-2072.576638,-80746.465489
281.409024,-4293.194464,2812.782580,-74464.482406
281.411615,-2664.741391,-3404.947333,-77988.521696
281.414205,2664.741391,-444.123565,-75996.673402
281.416796,148.041188,-2072.576638,-80286.808190
281.419386,740.205942,7254.018232,-78448.178995
281.421977,0.000000,7994.224174,-79061.055394
281.424568,5329.482782,6957.935855,-72779.072310
281.427158,592.164754,-3404.947333,-78294.959896
281.429749,8142.265362,8882.471304,-74924.139704
281.432340,-9030.512492,14508.036463,-76456.330700
281.434930,-3256.906145,-8586.388927,-82278.656485
281.437521,8882.471304,-7254.018232,-81359.341888
281.440111,2072.576638,-14359.995275,-76456.330700
281.442702,2812.782580,740.205942,-75537.016103
281.445293,17468.860231,-7105.977043,-72472.634111
281.447884,-21910.095883,-10510.924376,-71859.757712
281.450474,14804.118840,-15396.283594,-76762.768900
281.453065,5329.482782,-17172.777854,-78448.178995
281.455656,-24278.754898,-9030.512492,-79214.274493
281.458246,27979.784608,-1332.370696,-70480.785816
281.460837,15100.201217,-7105.977043,-75690.235202
281.463428,-7254.018232,-1628.453072,-78141.740796
281.466019,-3701.029710,-3404.947333,-76303.111601
281.468609,7698.141797,-9474.636058,-80440.027290
281.471200,1184.329507,-5329.482782,-77222.426198
281.473791,-4293.194464,-7402.059420,-78907.836294
281.476381,4885.359217,-20873.807564,-79980.369991
281.478972,5033.400406,-15396.283594,-76609.549800
281.481563,-5477.523971,-13027.624579,-76762.768900
281.484154,148.041188,-9178.553681,-79061.055394
281.486744,14063.912898,-8586.388927,-74311.263306
281.489335,-2812.782580,444.123565,-75230.577904
281.491926,-1332.370696,-21614.013506,-85343.038477
281.494516,13027.624579,13619.789333,-77222.426198
281.497107,-6809.894666,10658.965565,-79367.493593
281.499698,6069.688724,4737.318029,-78754.617194
281.502289,-1480.411884,9474.636058,-73545.167808
281.504879,-14211.954086,-1480.411884,-79520.712692
281.507470,14952.160028,0.000000,-86415.572174
281.510061,14063.912898,6957.935855,-74004.825107
281.512651,-10955.047942,-1332.370696,-79367.493593
281.515242,7254.018232,-1628.453072,-77528.864398
281.517833,-740.205942,3552.988522,-75230.577904
281.520424,-888.247130,-8882.471304,-80899.684589
281.523014,4589.276840,13175.665768,-74158.044206
281.525605,740.205942,7402.059420,-79367.493593
281.528196,296.082377,5477.523971,-76915.987999
281.530786,5329.482782,5477.523971,-76149.892501
281.533377,8438.347739,9770.718434,-74158.044206
281.535968,-14952.160028,15692.365970,-79214.274493
281.538559,3701.029710,-5625.565159,-80133.589091
281.541149,6217.729913,-7550.100608,-80133.589091
281.543739,-2072.576638,-4885.359217,-76303.111601
281.546330,12287.418637,3701.029710,-68335.718422
281.548920,-7994.224174,-740.205942,-75230.577904
281.551510,-16284.530724,-16728.654289,-77375.645298
281.554100,29756.278868,-33457.308578,-87028.448573
281.556690,-3997.112087,-13619.789333,-76915.987999
281.559280,-17468.860231,-9474.636058,-77835.302597
281.561871,28868.031738,-10066.800811,-75077.358804
281.564461,-4441.235652,-5921.647536,-77528.864398
281.567051,-3701.029710,-1924.535449,-75537.016103
281.569641,8290.306550,-9178.553681,-81206.122788
281.572231,1480.411884,-10066.800811,-85036.600278
281.574822,0.000000,-4589.276840,-75077.358804
281.577412,-740.205942,-11251.130318,-79214.274493
281.580002,740.205942,-16876.695478,-78754.617194
281.582592,2072.576638,-14952.160028,-77988.521696
281.585182,-1776.494261,-13915.871710,-75230.577904
281.587773,-1036.288319,-7994.224174,-78141.740796
281.590363,11103.089130,-4145.153275,-72932.291410
281.592953,-6809.894666,-17024.736666,-81206.122788
281.595543,592.164754,-10807.006753,-81052.903688
281.598133,9178.553681,14656.077652,-73085.510509
281.600723,-3701.029710,9918.759623,-78754.617194
281.603314,5181.441594,-4293.194464,-77988.521696
281.605904,11103.089130,12435.459826,-73238.729609
281.608494,-22946.384202,2960.823768,-77988.521696
281.611084,11695.253884,-7105.977043,-83657.628382
281.613674,5921.647536,13767.830521,-70787.224015
281.616265,-4885.359217,-4145.153275,-79980.369991
281.618855,11399.171507,-148.041188,-77528.864398
281.621445,-3701.029710,1776.494261,-73238.729609
281.624035,-1332.370696,-13175.665768,-84883.381178
281.626625,3849.070898,-148.041188,-84270.504780
281.629215,-148.041188,15692.365970,-75077.358804
281.631806,2960.823768,2072.576638,-78448.178995
281.634396,6957.935855,444.123565,-76609.549800
281.636986,3849.070898,9622.677246,-78907.836294
281.639576,2812.782580,9918.759623,-74464.482406
281.642166,-10066.800811,-6513.812290,-76915.987999
281.644757,6513.812290,3404.947333,-78141.740796
281.647345,9030.512492,-21317.931130,-79367.493593
281.649934,-12583.501014,-8734.430116,-85189.819378
281.652523,14952.160028,-13767.830521,-76915.987999
281.655112,-1924.535449,-13767.830521,-75537.016103
281.657701,-8734.430116,-6069.688724,-73238.729609
281.660290,23982.672521,-13323.706956,-74311.263306
281.662879,-18801.230927,-9178.553681,-79367.493593
281.665468,4589.276840,-1332.370696,-78601.398095
281.668057,20429.683999,-12435.459826,-83504.409282
281.670646,-14063.912898,-5329.482782,-73851.606007
281.673235,-10362.883188,-9030.512492,-79827.150892
281.675823,7550.100608,-6069.688724,-78448.178995
281.678412,4293.194464,-1480.411884,-74158.044206
281.681001,-1332.370696,-11991.336260,-75537.016103
281.683590,3849.070898,-14359.995275,-76915.987999
281.686179,444.123565,-17616.901420,-75690.235202
281.688768,4293.194464,-7846.182985,-76149.892501
281.691357,-1628.453072,-2072.576638,-74158.044206
281.693946,-11251.130318,-23538.548956,-79520.712692
281.696535,11251.130318,3552.988522,-74311.263306
281.699124,1184.329507,11251.130318,-70940.443115
281.701713,1628.453072,6661.853478,-81512.560987
281.704301,3997.112087,14063.912898,-73698.386908
281.706890,-9178.553681,-7402.059420,-82585.094684
281.709479,-2664.741391,4441.235652,-78907.836294
281.712068,15840.407159,11991.336260,-74311.263306
281.714657,-9326.594869,5477.523971,-74004.825107
281.717246,8142.265362,-2812.782580,-80593.246390
281.719835,6217.729913,296.082377,-77069.207099
281.722424,-10510.924376,1628.453072,-74924.139704
281.725013,2960.823768,-8586.388927,-79367.493593
281.727602,2072.576638,7846.182985,-76303.111601
281.730191,-148.041188,11103.089130,-77528.864398
281.732780,5181.441594,2812.782580,-79827.150892
281.735368,3552.988522,2368.659014,-78754.617194
281.737957,3256.906145,4589.276840,-74924.139704
281.740546,-4737.318029,17024.736666,-78754.617194
281.743135,-6809.894666,-9030.512492,-81052.903688
281.745724,6069.688724,-6513.812290,-78601.398095
281.748313,6365.771101,-1628.453072,-73238.729609
281.750897,6217.729913,-296.082377,-72166.195912
281.753485,3701.029710,-2368.659014,-71706.538613
281.756073,-20577.725188,-12435.459826,-78141.740796
281.758661,24130.713709,-33753.390955,-86415.572174
281.761249,-13175.665768,-7105.977043,-71859.757712
281.763836,0.000000,-5625.565159,-79827.150892
281.766424,26943.496289,-9770.718434,-82278.656485
281.769012,-1776.494261,-7105.977043,-71246.881314
281.771600,-5329.482782,-3404.947333,-77375.645298
281.774188,8290.306550,-7550.100608,-75537.016103
281.776775,1480.411884,-5033.400406,-77069.207099
281.779363,-1184.329507,-3552.988522,-74311.263306
281.781951,2368.659014,-8438.347739,-76303.111601
281.784539,4145.153275,-15248.242405,-77682.083497
281.787127,-4885.359217,-19097.313304,-76762.768900
281.789714,6365.771101,-11991.336260,-78754.617194
281.792302,-1628.453072,-2220.617826,-75843.454302
281.794890,-12583.501014,-24278.754898,-79673.931792
281.797478,29756.278868,12583.501014,-68488.937521
281.800066,-16728.654289,6069.688724,-71553.319513
281.802653,14063.912898,8586.388927,-83197.971083
281.805241,3404.947333,16432.571912,-74464.482406
281.807829,-16876.695478,-7402.059420,-85189.819378
281.810417,18505.148550,12435.459826,-74004.825107
281.813005,19097.313304,13915.871710,-75843.454302
281.815592,-15988.448347,2960.823768,-75383.797003
281.818180,11103.089130,-2960.823768,-81512.560987
281.820768,-2516.700203,3997.112087,-74924.139704
281.823356,-6513.812290,-1036.288319,-77528.864398
281.825944,5773.606348,-2516.700203,-74004.825107
281.828531,-2220.617826,6365.771101,-74464.482406
281.831119,1184.329507,2072.576638,-82278.656485
281.833707,4145.153275,5773.606348,-77988.521696
281.836295,4145.153275,3701.029710,-77528.864398
281.838883,5921.647536,9918.759623,-75537.016103
281.841470,-6957.935855,16136.489536,-76762.768900
281.844058,-2072.576638,-2812.782580,-80899.684589
281.846646,4293.194464,-7254.018232,-81052.903688
281.849234,-1480.411884,-3108.864956,-75843.454302
281.851822,6661.853478,148.041188,-72625.853210
281.854374,-2072.576638,-2960.823768,-75996.673402
281.856927,-18505.148550,-16136.489536,-76456.330700
281.859479,19985.560434,-18209.066173,-77528.864398
281.862032,-4737.318029,-14952.160028,-78141.740796
281.864585,-16876.695478,-9030.512492,-76762.768900
281.867137,29312.155303,-8882.471304,-75230.577904
281.869690,-4441.235652,-8586.388927,-80440.027290
281.872243,-5625.565159,-3256.906145,-70327.566716
281.874795,7846.182985,-7550.100608,-77988.521696
281.877348,5329.482782,-8586.388927,-76456.330700
281.879901,-2960.823768,1628.453072,-72779.072310
281.882453,888.247130,-1036.288319,-70174.347617
281.885006,4589.276840,-13619.789333,-76303.111601
281.887559,-2812.782580,-20133.601622,-77682.083497
281.890111,740.205942,-10510.924376,-79827.150892
281.892664,7846.182985,-6069.688724,-74617.701505
281.895217,-17024.736666,-19837.519246,-76762.768900
281.897769,21021.848753,12879.583391,-70634.004916
281.900322,-5329.482782,8734.430116,-69561.471218
281.902874,1924.535449,4737.318029,-85496.257577
281.905427,4885.359217,15544.324782,-72932.291410
281.907980,-3404.947333,-9622.677246,-83964.066581
281.910532,-8438.347739,-296.082377,-76762.768900
281.913085,17616.901420,13323.706956,-74004.825107
281.915638,-11399.171507,5625.565159,-74617.701505
281.918190,6365.771101,-4145.153275,-80133.589091
281.920743,-148.041188,3256.906145,-74617.701505
281.923296,-5477.523971,-8438.347739,-79214.274493
281.925848,4737.318029,-296.082377,-73085.510509
281.928401,-3552.988522,11103.089130,-74311.263306
281.930954,1628.453072,9326.594869,-79367.493593
281.933506,4441.235652,740.205942,-79980.369991
281.936059,1776.494261,9622.677246,-75077.358804
281.938612,4145.153275,10066.800811,-77375.645298
281.941164,2812.782580,10066.800811,-75843.454302
281.943717,-13767.830521,1332.370696,-73851.606007
281.946269,13767.830521,-6069.688724,-80440.027290
281.948822,-444.123565,-15544.324782,-78601.398095
281.951375,5033.400406,-4885.359217,-86415.572174
281.953927,25463.084405,-22058.137072,-77375.645298
281.956486,-4737.318029,-17468.860231,-75383.797003
281.959044,-7698.141797,-2516.700203,-71093.662214
281.961603,18653.189738,-13027.624579,-74464.482406
281.964161,-23538.548956,-10510.924376,-83197.971083
281.966720,11103.089130,1776.494261,-75077.358804
281.969278,13619.789333,-9178.553681,-82585.094684
281.971837,-11103.089130,-6957.935855,-80440.027290
281.974395,4293.194464,-4293.194464,-76303.111601
281.976954,5181.441594,-9474.636058,-78601.398095
281.979512,2960.823768,-17468.860231,-81512.560987
281.982071,-1924.535449,-9770.718434,-75077.358804
281.984629,4589.276840,-11843.295072,-71706.538613
281.987188,888.247130,-12583.501014,-75843.454302
281.989746,-2220.617826,-5181.441594,-77835.302597
281.992305,8438.347739,-7550.100608,-72319.415011
281.994863,-2812.782580,-3552.988522,-79367.493593
281.997422,-19541.436869,-6661.853478,-78294.959896
281.999980,18653.189738,6069.688724,-83504.409282
282.002539,-740.205942,17616.901420,-74924.139704
282.005097,-2072.576638,-9178.553681,-83197.971083
282.007655,10066.800811,13175.665768,-71400.100414
282.010214,-11991.336260,6069.688724,-77835.302597
282.012772,5921.647536,-5329.482782,-83810.847481
282.015331,9622.677246,8142.265362,-72779.072310
282.017889,-3404.947333,-2664.741391,-80286.808190
282.020448,-2812.782580,-3849.070898,-78601.398095
282.023006,3404.947333,-2664.741391,-77682.083497
282.025565,-3256.906145,7105.977043,-74004.825107
282.028123,4293.194464,7550.100608,-76609.549800
282.030682,3552.988522,7105.977043,-76149.892501
282.033240,296.082377,6809.894666,-78754.617194
282.035799,6365.771101,4885.359217,-77222.426198
282.038357,-5181.441594,17764.942608,-77375.645298
282.040916,-3108.864956,-7550.100608,-79214.274493
282.043474,7994.224174,-6217.729913,-80286.808190
282.046033,5181.441594,-18209.066173,-77222.426198
282.048591,2368.659014,2812.782580,-73545.167808
282.051150,14656.077652,-6365.771101,-72166.195912
282.053708,-18801.230927,-9474.636058,-73698.386908
282.056267,-4737.318029,-6513.812290,-71706.538613
282.058830,11843.295072,-12435.459826,-74617.701505
282.061393,-19541.436869,-9918.759623,-82278.656485
282.063956,18061.024985,1184.329507,-75843.454302
282.066519,5181.441594,-2072.576638,-83657.628382
282.069082,-444.123565,-3552.988522,-76762.768900
282.071645,-8586.388927,-4589.276840,-79214.274493
282.074208,6809.894666,-14211.954086,-81665.780087
282.076771,2664.741391,-14211.954086,-79061.055394
282.079334,-2812.782580,-7846.182985,-74924.139704
282.081897,3108.864956,-15840.407159,-72779.072310
282.084460,2960.823768,-12583.501014,-77222.426198
282.087024,-5033.400406,-1332.370696,-76609.549800
282.089587,8438.347739,-19097.313304,-76915.987999
282.092150,28275.866984,10658.965565,-70327.566716
282.094713,-21465.972318,2664.741391,-72012.976812
282.097276,14211.954086,1480.411884,-87641.324971
282.099839,-1776.494261,23242.466579,-71246.881314
282.102402,-11695.253884,-8882.471304,-84883.381178
282.104965,22206.178260,12731.542202,-68948.594820
282.107528,-7846.182985,17320.819043,-70940.443115
282.110091,-4145.153275,-12287.418637,-86875.229473
282.112654,21762.054695,-444.123565,-74924.139704
282.115217,5329.482782,2812.782580,-73851.606007
282.117780,-10955.047942,-592.164754,-76915.987999
282.120343,2960.823768,-5625.565159,-77835.302597
282.122907,2960.823768,6365.771101,-74617.701505
282.125470,-1036.288319,11251.130318,-75383.797003
282.128033,4293.194464,2516.700203,-82125.437386
282.130596,1480.411884,7698.141797,-79214.274493
282.133159,-1036.288319,14508.036463,-78294.959896
282.135722,8586.388927,11843.295072,-76303.111601
282.138285,-5181.441594,-6809.894666,-76149.892501
282.140848,-3108.864956,8290.306550,-72932.291410
282.143411,5625.565159,-19985.560434,-79367.493593
282.145974,-2072.576638,-6809.894666,-81512.560987
282.148537,18801.230927,-15840.407159,-76609.549800
282.151100,-7698.141797,-14952.160028,-74311.263306
282.153663,-1332.370696,-7402.059420,-72319.415011
282.156227,12287.418637,-11251.130318,-73238.729609
282.158790,-21614.013506,-11991.336260,-86262.353075
282.161357,-8586.388927,-3849.070898,-73851.606007
282.163924,14063.912898,-296.082377,-73698.386908
282.166491,2220.617826,-10955.047942,-77528.864398
282.169058,-5477.523971,-1480.411884,-77222.426198
282.171625,3404.947333,-4737.318029,-75843.454302
282.174192,2664.741391,-14804.118840,-79061.055394
282.176759,0.000000,-17764.942608,-76915.987999
282.179326,-4441.235652,-16876.695478,-76303.111601
282.181893,10066.800811,-9770.718434,-79827.150892
282.184460,6661.853478,-5477.523971,-76149.892501
282.187027,-20873.807564,-20133.601622,-80593.246390
282.189594,22354.219448,5477.523971,-74158.044206
282.192161,-6069.688724,6661.853478,-70480.785816
282.194728,1480.411884,12139.377449,-82585.094684
282.197295,9178.553681,15692.365970,-72779.072310
282.199862,-15988.448347,-9474.636058,-86415.572174
282.202429,1776.494261,10510.924376,-75843.454302
282.204996,17468.860231,7105.977043,-78294.959896
282.207563,-6069.688724,5921.647536,-72472.634111
282.210130,1776.494261,-3256.906145,-77682.083497
282.212697,7402.059420,1332.370696,-77222.426198
282.215264,-11695.253884,-3404.947333,-78141.740796
282.217831,2664.741391,-6217.729913,-78907.836294
282.220398,4145.153275,5181.441594,-77835.302597
282.222965,-1184.329507,13175.665768,-77222.426198
282.225532,3997.112087,1332.370696,-80593.246390
282.228099,6809.894666,8734.430116,-75383.797003
282.230666,-9326.594869,19541.436869,-77375.645298
282.233233,1184.329507,-9178.553681,-80899.684589
282.235800,9474.636058,-12139.377449,-83197.971083
282.238367,-4589.276840,3404.947333,-70021.128517
282.240934,3997.112087,-2664.741391,-72625.853210
282.243501,-3701.029710,-1924.535449,-74464.482406
282.246068,-5921.647536,-17468.860231,-78754.617194
282.248635,18801.230927,-35529.885216,-84883.381178
282.251202,-19837.519246,-2072.576638,-71706.538613
282.253769,-11991.336260,-296.082377,-76303.111601
282.256336,23834.631332,-10510.924376,-83504.409282
282.258903,-7550.100608,592.164754,-75230.577904
282.261470,-3404.947333,-6513.812290,-78448.178995
282.264040,5921.647536,-444.123565,-71093.662214
282.266609,7105.977043,-12731.542202,-78141.740796
282.269178,-3552.988522,-7105.977043,-77375.645298
282.271747,4293.194464,-4293.194464,-73698.386908
282.274316,-1776.494261,-15396.283594,-72932.291410
282.276886,2072.576638,-15396.283594,-76456.330700
282.279455,-888.247130,-4145.153275,-76456.330700
282.282024,3404.947333,-18653.189738,-76762.768900
282.284593,12583.501014,8882.471304,-73851.606007
282.287162,-14359.995275,-5477.523971,-77375.645298
282.289732,21762.054695,5033.400406,-80286.808190
282.292301,-6809.894666,18949.272115,-74004.825107
282.294870,1036.288319,-4293.194464,-81206.122788
282.297439,14508.036463,14211.954086,-71706.538613
282.300008,6513.812290,9474.636058,-75077.358804
282.302578,-8882.471304,-1036.288319,-77375.645298
282.305147,15544.324782,-3404.947333,-77528.864398
282.307716,-4293.194464,888.247130,-75230.577904
282.310285,-4145.153275,-1332.370696,-78754.617194
282.312855,4589.276840,-5625.565159,-78141.740796
282.315424,-1480.411884,4737.318029,-75077.358804
282.317993,592.164754,9178.553681,-76762.768900
282.320562,4293.194464,7698.141797,-81512.560987
282.323131,9030.512492,11547.212695,-74004.825107
282.325701,-11103.089130,15544.324782,-76762.768900
282.328270,11547.212695,-2368.659014,-78601.398095
282.330839,-740.205942,-1776.494261,-74924.139704
282.333408,-2664.741391,5181.441594,-72779.072310
282.335977,8882.471304,-12731.542202,-73698.386908
282.338547,-10066.800811,-9030.512492,-85343.038477
282.341116,1184.329507,-14359.995275,-78601.398095
282.343685,12879.583391,-27239.578666,-80899.684589
282.346254,-14952.160028,-4737.318029,-72319.415011
282.348823,11991.336260,-5921.647536,-75843.454302
282.351393,1184.329507,-6217.729913,-79980.369991
282.353962,-9918.759623,3997.112087,-79214.274493
282.356531,10658.965565,-1924.535449,-74464.482406
282.359100,1332.370696,-9770.718434,-78601.398095
282.361669,-1480.411884,-2664.741391,-71859.757712
282.364239,740.205942,-5033.400406,-76762.768900
282.366810,6661.853478,-11547.212695,-77835.302597
282.369381,-3552.988522,-22502.260637,-78141.740796
282.371952,2368.659014,-11399.171507,-75537.016103
282.374523,-888.247130,-10066.800811,-78141.740796
282.377094,8438.347739,-16136.489536,-78448.178995
282.379665,3701.029710,16580.613101,-70480.785816
282.382236,-1332.370696,-20281.642811,-84270.504780
282.384807,9474.636058,14508.036463,-77682.083497
282.387378,-4737.318029,12879.583391,-82278.656485
282.389949,-2072.576638,-14211.954086,-86568.791274
282.392520,16136.489536,11547.212695,-71400.100414
282.395091,-10510.924376,14211.954086,-70787.224015
282.397662,1184.329507,-10066.800811,-85189.819378
282.400233,12435.459826,2072.576638,-74924.139704
282.402804,-7846.182985,0.000000,-77988.521696
282.405375,4293.194464,-2220.617826,-74617.701505
282.407946,-296.082377,148.041188,-75996.673402
282.410517,-3404.947333,6365.771101,-75537.016103
282.413088,1628.453072,11251.130318,-76149.892501
282.415659,4885.359217,8290.306550,-79061.055394
282.418230,3701.029710,9326.594869,-79214.274493
282.420801,-10510.924376,14952.160028,-77835.302597
282.423372,14804.118840,-2812.782580,-79827.150892
282.425944,-592.164754,-5477.523971,-78601.398095
282.428515,-10955.047942,5477.523971,-72625.853210
282.431086,10066.800811,-4885.359217,-72166.195912
282.433657,-11103.089130,-6217.729913,-78141.740796
282.436228,1776.494261,-14063.912898,-77835.302597
282.438799,25907.207970,-24278.754898,-81512.560987
282.441370,-13471.748144,-10658.965565,-74617.701505
282.443941,2516.700203,-592.164754,-74770.920605
282.446512,12139.377449,-1332.370696,-71859.757712
282.449083,-15100.201217,888.247130,-80899.684589
282.451654,4589.276840,-444.123565,-76149.892501
282.454225,7698.141797,-148.041188,-71400.100414
282.456796,-1480.411884,-11547.212695,-80133.589091
282.459367,-592.164754,-11251.130318,-77069.207099
282.461938,4293.194464,-14804.118840,-75843.454302
282.464509,-1924.535449,-14359.995275,-73391.948708
282.467080,888.247130,-10214.842000,-76609.549800
282.469653,1332.370696,-4589.276840,-76762.768900
282.472226,-8882.471304,-22946.384202,-81052.903688
282.474798,3701.029710,-1480.411884,-77222.426198
282.477371,6069.688724,10955.047942,-69561.471218
282.479944,1184.329507,7402.059420,-79827.150892
282.482517,3404.947333,13767.830521,-75383.797003
282.485089,-11103.089130,-5773.606348,-82891.532884
282.487662,-9622.677246,1924.535449,-77682.083497
282.490235,18357.107362,2516.700203,-76609.549800
282.492808,-592.164754,1036.288319,-77375.645298
282.495381,-1036.288319,-1480.411884,-77222.426198
282.497953,7994.224174,-296.082377,-75230.577904
282.500526,-3404.947333,1332.370696,-74617.701505
282.503099,-1480.411884,-444.123565,-77069.207099
282.505672,5921.647536,2664.741391,-79061.055394
282.508244,2812.782580,10510.924376,-77528.864398
282.510817,2516.700203,12583.501014,-74464.482406
282.513390,-3552.988522,13915.871710,-78907.836294
282.515963,8290.306550,5329.482782,-75690.235202
282.518535,-8142.265362,-5921.647536,-77069.207099
282.521108,6069.688724,1628.453072,-74464.482406
282.523681,6069.688724,-17616.901420,-79061.055394
282.526254,-11399.171507,-8734.430116,-84423.723880
282.528827,23834.631332,-18801.230927,-77835.302597
282.531399,-7846.182985,-10066.800811,-71246.881314
282.533972,-16136.489536,296.082377,-70327.566716
282.536545,23242.466579,-12139.377449,-77375.645298
282.539118,-14211.954086,-3552.988522,-80133.589091
282.541690,-2516.700203,-2220.617826,-76303.111601
282.544263,11991.336260,-4589.276840,-75843.454302
282.546836,2220.617826,-2960.823768,-72319.415011
282.549409,-3404.947333,-5477.523971,-75996.673402
282.551981,0.000000,-6809.894666,-76149.892501
282.554554,3404.947333,-11843.295072,-76303.111601
282.557127,-7698.141797,-15988.448347,-75077.358804
282.559700,5921.647536,-15248.242405,-79214.274493
282.562273,3404.947333,-6069.688724,-76609.549800
282.564845,-4145.153275,-22502.260637,-79061.055394
282.567418,18209.066173,16136.489536,-68335.718422
282.569991,-11991.336260,-3256.906145,-74617.701505
282.572564,9918.759623,4145.153275,-81206.122788
282.575138,1332.370696,21169.889941,-74464.482406
282.577711,-1184.329507,-8438.347739,-83351.190182
282.580285,6217.729913,12731.542202,-72319.415011
282.582858,7105.977043,11103.089130,-76149.892501
282.585431,-8438.347739,-5921.647536,-78448.178995
282.588005,14804.118840,-1628.453072,-77528.864398
282.590578,-3404.947333,2220.617826,-72319.415011
282.593152,-1480.411884,-4885.359217,-77069.207099
282.595725,2220.617826,-296.082377,-77375.645298
282.598299,-1924.535449,5477.523971,-76456.330700
282.600872,4293.194464,6069.688724,-78754.617194
282.603446,1628.453072,9474.636058,-79061.055394
282.606019,-740.205942,19097.313304,-77682.083497
282.608592,7254.018232,8586.388927,-75843.454302
282.611166,-11547.212695,-2072.576638,-79367.493593
282.613739,11695.253884,-5033.400406,-79980.369991
282.616313,6365.771101,-21021.848753,-78141.740796
282.618886,-5773.606348,3108.864956,-73545.167808
282.621460,20429.683999,-8586.388927,-72779.072310
282.624033,-18801.230927,-10362.883188,-69714.690318
282.626606,-7846.182985,-6365.771101,-72625.853210
282.629180,15840.407159,-8734.430116,-71400.100414
282.631753,-23686.590144,-14359.995275,-86875.229473
282.634327,17172.777854,6069.688724,-74464.482406
282.636900,5329.482782,-13471.748144,-84117.285680
282.639474,-2812.782580,2664.741391,-68948.594820
282.642047,1332.370696,-14952.160028,-81359.341888
282.644621,-1480.411884,-5181.441594,-74924.139704
282.647194,2812.782580,-10658.965565,-75077.358804
282.649767,-4737.318029,-13619.789333,-70940.443115
282.652341,7846.182985,-16580.613101,-78907.836294
282.654914,888.247130,-5773.606348,-74924.139704
282.657488,0.000000,-17764.942608,-78601.398095
282.660061,8882.471304,13767.830521,-74004.825107
282.662635,-9326.594869,-12879.583391,-78601.398095
282.665208,17024.736666,8290.306550,-77682.083497
282.667781,-4589.276840,19393.395680,-71246.881314
282.670355,5329.482782,-7550.100608,-79367.493593
282.672928,7994.224174,14359.995275,-68182.499322
282.675502,-6513.812290,8586.388927,-75077.358804
282.678076,-4589.276840,-11399.171507,-83197.971083
282.680650,18209.066173,148.041188,-73851.606007
282.683224,-6069.688724,296.082377,-80899.684589
282.685799,-2220.617826,-7254.018232,-80440.027290
282.688373,6957.935855,-7846.182985,-78754.617194
282.690947,-4737.318029,10807.006753,-70174.347617
282.693521,3849.070898,9918.759623,-75690.235202
282.696095,4589.276840,8586.388927,-76915.987999
282.698669,-2664.741391,15100.201217,-79980.369991
282.701243,8142.265362,9474.636058,-75843.454302
282.703817,-6069.688724,-11399.171507,-80440.027290
282.706391,-2960.823768,296.082377,-79827.150892
282.708965,10066.800811,-16580.613101,-78907.836294
282.711539,-5773.606348,-3552.988522,-78754.617194
282.714113,21021.848753,-13619.789333,-75077.358804
282.716687,-12287.418637,-7105.977043,-71246.881314
282.719261,-6957.935855,-4145.153275,-70021.128517
282.721835,11843.295072,-5921.647536,-71553.319513
282.724409,-15840.407159,-13175.665768,-84117.285680
282.726983,12879.583391,-1480.411884,-75537.016103
282.729557,6809.894666,-10807.006753,-78754.617194
282.732131,-592.164754,296.082377,-71246.881314
282.734705,-2072.576638,-7402.059420,-76915.987999
282.737279,4589.276840,-6809.894666,-75383.797003
282.739853,2072.576638,-10066.800811,-75383.797003
282.742427,-4885.359217,-15692.365970,-72472.634111
282.745001,6069.688724,-13323.706956,-77835.302597
282.747575,888.247130,-6217.729913,-76915.987999
282.750150,-10510.924376,-25907.207970,-80133.589091
282.752724,24870.919651,10362.883188,-71246.881314
