#time,accel_x,accel_y,accel_z
1708.273694,-11695.253884,4737.318029,-72779.072310
1708.276240,19393.395680,-7402.059420,-81972.218286
1708.278785,-16728.654289,2220.617826,-79520.712692
1708.281330,-7254.018232,-1036.288319,-75077.358804
1708.283875,5625.565159,-6365.771101,-77835.302597
1708.286420,-12139.377449,1924.535449,-73698.386908
1708.288965,10807.006753,-12879.583391,-79980.369991
1708.291510,-25463.084405,13175.665768,-68182.499322
1708.294055,16284.530724,-16728.654289,-80593.246390
1708.296600,-35974.008781,13619.789333,-69867.909418
1708.299145,29608.237680,-14508.036463,-76149.892501
1708.301690,-43228.027013,15248.242405,-71246.881314
1708.304235,49445.756926,-19985.560434,-85036.600278
1708.306780,444.123565,3701.029710,-72166.195912
1708.309325,23686.590144,-8734.430116,-79061.055394
1708.311870,-10658.965565,5477.523971,-78448.178995
1708.314415,17468.860231,-12435.459826,-77528.864398
1708.316960,-13619.789333,-148.041188,-75077.358804
1708.319505,29312.155303,-2664.741391,-79827.150892
1708.322051,-4737.318029,148.041188,-78907.836294
1708.324596,14359.995275,-1036.288319,-77682.083497
1708.327141,-1776.494261,-296.082377,-79520.712692
1708.329686,-10955.047942,-5773.606348,-76915.987999
1708.332231,33605.349767,-19245.354492,-80286.808190
1708.334794,-41007.409187,12583.501014,-71706.538613
1708.337357,36566.173535,-14656.077652,-87181.667672
1708.339921,-44856.480085,20281.642811,-65118.117330
1708.342484,29016.072926,-22354.219448,-85496.257577
1708.345047,-27535.661042,14952.160028,-72166.195912
1708.347610,7254.018232,-12879.583391,-84423.723880
1708.350174,-4145.153275,7846.182985,-67569.622924
1708.352737,32569.061448,-17024.736666,-83810.847481
1708.355300,-23834.631332,0.000000,-79980.369991
1708.357863,15100.201217,-1628.453072,-75230.577904
1708.360427,-23686.590144,3849.070898,-77682.083497
1708.362990,-15544.324782,-4885.359217,-83197.971083
1708.365553,888.247130,-5625.565159,-77069.207099
1708.368116,-888.247130,-3108.864956,-74311.263306
1708.370680,6957.935855,-6217.729913,-79673.931792
1708.373243,-19097.313304,2516.700203,-76915.987999
1708.375806,13619.789333,-14656.077652,-76303.111601
1708.378369,-37602.461854,7846.182985,-69408.252119
1708.380933,19393.395680,-19097.313304,-86722.010374
1708.383496,-16728.654289,8734.430116,-68029.280222
1708.386059,30496.484810,-14804.118840,-82278.656485
1708.388622,-22058.137072,11103.089130,-73391.948708
1708.391186,39082.873738,-9474.636058,-83044.751983
1708.393749,-17320.819043,7105.977043,-70940.443115
1708.396312,-18357.107362,1628.453072,-75690.235202
1708.398875,-6957.935855,-4441.235652,-78141.740796
1708.401439,3256.906145,-4589.276840,-75230.577904
1708.404002,-2960.823768,-8586.388927,-77988.521696
1708.406565,-37602.461854,6217.729913,-73698.386908
1708.409128,44412.356520,-20429.683999,-86722.010374
1708.411692,-27831.743419,8290.306550,-69408.252119
1708.414255,28868.031738,-10362.883188,-81972.218286
1708.416818,-27091.537477,10658.965565,-65118.117330
1708.419381,20133.601622,-13471.748144,-88407.420469
1708.421945,-20281.642811,6513.812290,-72012.976812
1708.424508,65434.205273,-17024.736666,-85802.695776
1708.427071,-43524.109390,5477.523971,-70480.785816
1708.429634,43376.068201,-10658.965565,-79367.493593
1708.432198,-27831.743419,5477.523971,-84117.285680
1708.434761,-48409.468607,-4589.276840,-72779.072310
1708.437331,31680.814318,-6661.853478,-72319.415011
1708.439901,-3997.112087,296.082377,-81052.903688
1708.442471,-21169.889941,-10214.842000,-76303.111601
1708.445041,14063.912898,-7550.100608,-80286.808190
1708.447611,-7254.018232,-13175.665768,-78601.398095
1708.450180,-27387.619854,8586.388927,-74311.263306
1708.452750,36122.049970,-16876.695478,-81818.999186
1708.455320,-30792.567187,15544.324782,-70787.224015
1708.457890,27091.537477,-10362.883188,-79673.931792
1708.460460,-4293.194464,3256.906145,-73545.167808
1708.463030,19097.313304,-6957.935855,-77528.864398
1708.465600,-21169.889941,0.000000,-78141.740796
1708.468170,33901.432144,-8882.471304,-80440.027290
1708.470740,-5921.647536,4885.359217,-75996.673402
1708.473310,22354.219448,-592.164754,-79827.150892
1708.475880,-11547.212695,1332.370696,-78601.398095
1708.478450,15100.201217,-5921.647536,-75383.797003
1708.481020,-14063.912898,-444.123565,-78448.178995
1708.483590,-21614.013506,11547.212695,-72472.634111
1708.486160,30644.525999,-19245.354492,-81665.780087
1708.488730,-13767.830521,19393.395680,-65118.117330
1708.491300,17764.942608,-18949.272115,-86722.010374
1708.493870,-28571.949361,14804.118840,-66803.527426
1708.496439,9918.759623,-15544.324782,-79827.150892
1708.499009,-11843.295072,11695.253884,-69561.471218
1708.501579,26351.331535,-13915.871710,-85955.914876
1708.504149,148.041188,10955.047942,-71400.100414
1708.506719,47669.262665,-12435.459826,-81512.560987
1708.509289,-49741.839302,5773.606348,-76609.549800
1708.511859,11103.089130,-5033.400406,-76915.987999
1708.514429,-18209.066173,-10066.800811,-82125.437386
1708.516999,17172.777854,2368.659014,-74924.139704
1708.519569,24278.754898,1184.329507,-68642.156621
1708.522139,-13027.624579,9178.553681,-72625.853210
1708.524709,-28868.031738,9474.636058,-65577.774629
1708.527279,5033.400406,-10658.965565,-88254.201370
1708.529849,-27979.784608,-9770.718434,-78294.959896
1708.532419,16432.571912,-148.041188,-77988.521696
1708.534989,46040.809592,-14656.077652,-85036.600278
1708.537559,-42783.903448,15840.407159,-69714.690318
1708.540133,55959.569215,-14804.118840,-79520.712692
1708.542707,-38194.626607,6661.853478,-68642.156621
1708.545282,4885.359217,-3404.947333,-76762.768900
1708.547856,-6661.853478,2072.576638,-74311.263306
1708.550430,25463.084405,-12879.583391,-77682.083497
1708.553005,8882.471304,888.247130,-77528.864398
1708.555579,30792.567187,-3997.112087,-76303.111601
1708.558154,-33457.308578,8734.430116,-75077.358804
1708.560728,-14508.036463,-592.164754,-81972.218286
1708.563302,-1924.535449,-16284.530724,-81052.903688
1708.565877,-18209.066173,6069.688724,-67416.403824
1708.568451,17468.860231,-12435.459826,-79061.055394
1708.571025,-21021.848753,9326.594869,-77682.083497
1708.573600,16580.613101,-13175.665768,-81206.122788
1708.576174,-44264.315332,11695.253884,-68335.718422
1708.578748,14508.036463,-11399.171507,-79061.055394
1708.581323,-40563.285622,14211.954086,-73238.729609
1708.583897,19097.313304,-9622.677246,-77069.207099
1708.586472,7846.182985,-1480.411884,-75996.673402
1708.589046,28275.866984,-1184.329507,-78601.398095
1708.591620,-30792.567187,6809.894666,-74311.263306
1708.594195,7254.018232,-3701.029710,-79367.493593
1708.596769,-27683.702231,148.041188,-81052.903688
1708.599343,19393.395680,-5033.400406,-77835.302597
1708.601918,-27979.784608,4441.235652,-75383.797003
1708.604492,40119.162056,1332.370696,-81818.999186
1708.607066,-3997.112087,0.000000,-79520.712692
1708.609641,-14359.995275,17912.983796,-63432.707234
1708.612215,3997.112087,-17912.983796,-79061.055394
1708.614790,-41303.491564,13471.748144,-70787.224015
1708.617364,35085.761651,-22354.219448,-84270.504780
1708.619938,2072.576638,16580.613101,-68488.937521
1708.622513,8438.347739,-14952.160028,-88100.982270
1708.625087,5773.606348,8438.347739,-74004.825107
1708.627661,-6957.935855,-10066.800811,-86415.572174
1708.630236,-23390.507767,1628.453072,-76915.987999
1708.632810,60400.804867,-21169.889941,-83964.066581
1708.635385,-24426.796086,6217.729913,-81359.341888
1708.637959,148.041188,-7698.141797,-79827.150892
1708.640533,33901.432144,-8290.306550,-83044.751983
1708.643106,-19245.354492,148.041188,-70480.785816
1708.645679,-15396.283594,-1628.453072,-71706.538613
1708.648252,-11103.089130,-740.205942,-78294.959896
1708.650824,10066.800811,-10066.800811,-78754.617194
1708.653397,12435.459826,-2664.741391,-78294.959896
1708.655970,14211.954086,-10955.047942,-77375.645298
1708.658543,-21762.054695,11695.253884,-70021.128517
1708.661115,16432.571912,-17616.901420,-83964.066581
1708.663688,-13619.789333,5773.606348,-68948.594820
1708.666261,19245.354492,-8882.471304,-82891.532884
1708.668833,-1184.329507,5329.482782,-76915.987999
1708.671406,46188.850781,-11991.336260,-78754.617194
1708.673979,-8882.471304,4589.276840,-72625.853210
1708.676552,18801.230927,-5921.647536,-80746.465489
1708.679124,-7254.018232,1480.411884,-77069.207099
1708.681697,17764.942608,-2664.741391,-73698.386908
1708.684270,-4589.276840,-3108.864956,-81818.999186
1708.686843,-2220.617826,-592.164754,-74924.139704
1708.689415,9918.759623,-14063.912898,-80133.589091
1708.691988,-12435.459826,9918.759623,-72625.853210
1708.694561,10214.842000,-14656.077652,-81512.560987
1708.697134,-31384.731941,11991.336260,-68948.594820
1708.699706,56995.857534,-25611.125593,-76149.892501
1708.702279,-47373.180288,24426.796086,-61900.516238
1708.704852,26795.455100,-17468.860231,-78754.617194
1708.707425,-19245.354492,8734.430116,-63585.926334
1708.709997,31976.896694,-11843.295072,-85496.257577
1708.712570,-75056.882519,2812.782580,-85802.695776
1708.715143,84975.642142,-9474.636058,-82278.656485
1708.717716,-55811.528027,8734.430116,-66650.308326
1708.720288,15248.242405,-5329.482782,-86568.791274
1708.722861,2072.576638,6217.729913,-77682.083497
1708.725434,-24574.837274,-2960.823768,-78141.740796
1708.728007,28571.949361,-5477.523971,-79827.150892
1708.730579,-31236.690752,-2220.617826,-74924.139704
1708.733152,3404.947333,-7698.141797,-77835.302597
1708.735725,-5921.647536,-3552.988522,-80133.589091
1708.738298,15100.201217,-13915.871710,-86109.133975
1708.740870,-33309.267390,19541.436869,-67416.403824
1708.743443,39526.997303,-17024.736666,-80593.246390
1708.746015,-34493.596897,13767.830521,-66343.870127
1708.748586,30496.484810,-19985.560434,-85649.476676
1708.751158,-20429.683999,10066.800811,-71706.538613
1708.753730,16136.489536,-17320.819043,-93616.869856
1708.756301,-5773.606348,2960.823768,-77375.645298
1708.758873,25167.002028,-12287.418637,-78601.398095
1708.761444,-19097.313304,1776.494261,-76303.111601
1708.764016,2220.617826,-10510.924376,-80286.808190
1708.766588,-15544.324782,-6661.853478,-78601.398095
1708.769159,148.041188,-1924.535449,-78601.398095
1708.771731,-4885.359217,-6661.853478,-80286.808190
1708.774302,-11251.130318,6217.729913,-71859.757712
1708.776874,11103.089130,-17468.860231,-79827.150892
1708.779446,-35085.761651,11251.130318,-67569.622924
1708.782017,3701.029710,-19097.313304,-82431.875585
1708.784589,-15988.448347,10658.965565,-70327.566716
1708.787160,29164.114115,-14952.160028,-82585.094684
1708.789732,-41155.450375,9326.594869,-73851.606007
1708.792304,50482.045244,-4885.359217,-73545.167808
1708.794875,-31828.855506,-7402.059420,-72932.291410
1708.797447,22650.301825,-5625.565159,-83504.409282
1708.800018,3849.070898,3256.906145,-76303.111601
1708.802590,-10658.965565,-11695.253884,-80286.808190
1708.805162,21317.931130,10807.006753,-75537.016103
1708.807733,-1332.370696,-4145.153275,-69867.909418
1708.810305,32865.143825,6217.729913,-76456.330700
1708.812876,-15100.201217,7402.059420,-71400.100414
1708.815448,12287.418637,-16876.695478,-84423.723880
1708.818020,-13767.830521,7105.977043,-67416.403824
1708.820591,66026.370026,-15544.324782,-79214.274493
1708.823163,-44708.438897,14359.995275,-68029.280222
1708.825734,41599.573940,-5773.606348,-81206.122788
1708.828306,-296.082377,1332.370696,-73851.606007
1708.830878,10658.965565,-11251.130318,-78294.959896
1708.833449,6513.812290,1924.535449,-73391.948708
1708.836021,10362.883188,-1036.288319,-73698.386908
1708.838592,-5625.565159,-2368.659014,-73391.948708
1708.841164,16284.530724,-6069.688724,-78754.617194
1708.843735,-1184.329507,-9918.759623,-77988.521696
1708.846307,-18949.272115,10807.006753,-69408.252119
1708.848878,18505.148550,-18209.066173,-83197.971083
1708.851448,-32272.979071,11399.171507,-71246.881314
1708.854019,25907.207970,-18505.148550,-82125.437386
1708.856590,-21169.889941,16728.654289,-66650.308326
1708.859161,23242.466579,-15544.324782,-85189.819378
1708.861731,-25018.960840,16876.695478,-68488.937521
1708.864302,31384.731941,-10955.047942,-79673.931792
1708.866873,-6365.771101,5921.647536,-77375.645298
1708.869443,18505.148550,-740.205942,-75077.358804
1708.872014,-14952.160028,1628.453072,-78141.740796
1708.874585,25463.084405,-3849.070898,-77528.864398
1708.877155,-7402.059420,3108.864956,-75230.577904
1708.879726,18801.230927,-1776.494261,-77682.083497
1708.882297,-9030.512492,2368.659014,-74617.701505
1708.884867,15544.324782,-12435.459826,-85496.257577
1708.887438,-888.247130,-5181.441594,-85496.257577
1708.890009,-50926.168810,21021.848753,-62666.611736
1708.892579,7994.224174,-22058.137072,-83964.066581
1708.895150,5921.647536,13767.830521,-71246.881314
1708.897721,-23242.466579,-22946.384202,-89479.954166
1708.900292,27387.619854,9474.636058,-72779.072310
1708.902862,-10807.006753,-14063.912898,-85802.695776
1708.905433,-37010.297100,11251.130318,-75077.358804
1708.908004,50482.045244,-13619.789333,-79367.493593
1708.910574,-46929.056723,2368.659014,-73698.386908
1708.913145,49593.798114,3849.070898,-75690.235202
1708.915716,-1036.288319,-3997.112087,-81052.903688
1708.918286,2664.741391,-2072.576638,-71093.662214
1708.920857,-8734.430116,-1480.411884,-81818.999186
1708.923428,-10955.047942,4737.318029,-73238.729609
1708.925998,-7994.224174,-4885.359217,-79214.274493
1708.928569,-8438.347739,-2664.741391,-76456.330700
1708.931140,7846.182985,-11843.295072,-78601.398095
1708.933710,-17320.819043,8586.388927,-70634.004916
1708.936281,8290.306550,-13175.665768,-81665.780087
1708.938852,-35677.926404,16580.613101,-71093.662214
1708.941423,22650.301825,-19985.560434,-85955.914876
1708.943993,5625.565159,5773.606348,-66343.870127
1708.946564,-6069.688724,-10510.924376,-76915.987999
1708.949135,-7402.059420,2368.659014,-74924.139704
1708.951704,31384.731941,-6365.771101,-74464.482406
1708.954273,-21762.054695,3849.070898,-74770.920605
1708.956843,25315.043216,-2960.823768,-81972.218286
1708.959413,-12287.418637,5773.606348,-74770.920605
1708.961982,-5625.565159,-4885.359217,-77682.083497
1708.964552,-5181.441594,-11991.336260,-82278.656485
1708.967122,-8882.471304,0.000000,-78141.740796
1708.969691,148.041188,-8734.430116,-76149.892501
1708.972261,-36418.132346,9326.594869,-77222.426198
1708.974831,21465.972318,-23834.631332,-88560.639569
1708.977400,-21021.848753,10658.965565,-70174.347617
1708.979970,13175.665768,-11251.130318,-77988.521696
1708.982540,-34493.596897,14211.954086,-65730.993728
1708.985109,8438.347739,-21614.013506,-87181.667672
1708.987679,8882.471304,4737.318029,-75843.454302
1708.990249,25315.043216,-13471.748144,-85955.914876
1708.992818,-34937.720462,3701.029710,-75843.454302
1708.995388,39675.038491,-12879.583391,-81052.903688
1708.997958,-29756.278868,4737.318029,-85343.038477
1709.000527,15248.242405,-13915.871710,-83964.066581
1709.003097,35381.844028,-1480.411884,-77528.864398
1709.005667,-25167.002028,2960.823768,-71553.319513
1709.008236,10362.883188,5921.647536,-81665.780087
1709.010806,9030.512492,-6365.771101,-80899.684589
1709.013375,-16284.530724,-3552.988522,-73391.948708
1709.015945,-27683.702231,14508.036463,-68948.594820
1709.018515,29460.196492,-21910.095883,-87794.544071
1709.021084,-32124.937883,19393.395680,-68948.594820
1709.023654,41155.450375,-17912.983796,-85649.476676
1709.026224,-17616.901420,16580.613101,-66803.527426
1709.028793,26351.331535,-11547.212695,-80593.246390
1709.031363,-19837.519246,11399.171507,-67722.842023
1709.033929,35085.761651,-16136.489536,-81512.560987
1709.036494,-3997.112087,4737.318029,-73851.606007
1709.039060,35085.761651,-10362.883188,-79980.369991
1709.041625,-1776.494261,-444.123565,-79827.150892
1709.044191,-3849.070898,-6513.812290,-79673.931792
1709.046757,8586.388927,-5921.647536,-78754.617194
1709.049322,-9326.594869,-2072.576638,-72932.291410
1709.051888,4293.194464,-8142.265362,-80440.027290
1709.054453,1036.288319,4589.276840,-76149.892501
1709.057019,888.247130,-9326.594869,-77222.426198
1709.059584,-13323.706956,5625.565159,-75230.577904
1709.062150,26203.290347,-14656.077652,-80593.246390
1709.064716,-44560.397708,8438.347739,-71400.100414
1709.067281,37306.379477,-11103.089130,-82585.094684
1709.069847,-18357.107362,11991.336260,-72472.634111
1709.072412,21317.931130,-12287.418637,-88100.982270
1709.074978,35825.967593,7846.182985,-67263.184724
1709.077543,-29756.278868,5477.523971,-70480.785816
1709.080109,-13767.830521,-4589.276840,-72472.634111
1709.082675,36566.173535,-17764.942608,-82891.532884
1709.085240,-31976.896694,1924.535449,-74770.920605
1709.087806,51814.415940,-2812.782580,-82278.656485
1709.090371,-34937.720462,15692.365970,-72012.976812
1709.092937,-40119.162056,6217.729913,-72932.291410
1709.095503,21910.095883,-22354.219448,-80593.246390
1709.098068,-37158.338288,11695.253884,-69714.690318
1709.100634,16580.613101,-12139.377449,-80133.589091
1709.103199,-30496.484810,20133.601622,-70634.004916
1709.105765,21021.848753,-16136.489536,-85955.914876
1709.108330,-27091.537477,15248.242405,-68948.594820
1709.110896,24722.878463,-19837.519246,-80133.589091
1709.113462,-24278.754898,12879.583391,-66037.431928
1709.116027,24426.796086,-10807.006753,-81665.780087
1709.118593,1036.288319,-444.123565,-76303.111601
1709.121158,9474.636058,-3404.947333,-82125.437386
1709.123724,-13915.871710,3256.906145,-78754.617194
1709.126289,-3997.112087,-5921.647536,-74617.701505
1709.128855,-15396.283594,-3701.029710,-83044.751983
1709.131421,6365.771101,-1332.370696,-75996.673402
1709.133986,3552.988522,-2516.700203,-73851.606007
1709.136550,-9326.594869,-2072.576638,-80899.684589
1709.139114,-12731.542202,-4737.318029,-79061.055394
1709.141677,-34049.473332,9770.718434,-71400.100414
1709.144241,29608.237680,-20725.766376,-80746.465489
1709.146805,-40859.367998,15988.448347,-71706.538613
1709.149368,34345.555709,-14359.995275,-83044.751983
1709.151932,-31976.896694,9622.677246,-70327.566716
1709.154496,44708.438897,-16432.571912,-90092.830565
1709.157059,-10510.924376,12879.583391,-70787.224015
1709.159623,2960.823768,-9622.677246,-81052.903688
1709.162187,-10510.924376,9030.512492,-69867.909418
1709.164750,-25759.166782,-5477.523971,-77682.083497
1709.167314,74908.841330,-5921.647536,-78907.836294
1709.169878,-5625.565159,14952.160028,-78141.740796
1709.172441,-26055.249158,-1480.411884,-76609.549800
1709.175005,30052.361245,-1184.329507,-70480.785816
1709.177569,-32569.061448,-13175.665768,-66037.431928
1709.180132,-2812.782580,148.041188,-72472.634111
1709.182696,16580.613101,-16876.695478,-83197.971083
1709.185260,-42635.862259,10362.883188,-75537.016103
1709.187823,56995.857534,-25611.125593,-88560.639569
1709.190387,-28275.866984,21317.931130,-66037.431928
1709.192951,-1924.535449,-10658.965565,-80746.465489
1709.195514,-1332.370696,-296.082377,-72472.634111
1709.198078,21465.972318,-9030.512492,-82738.313784
1709.200642,3108.864956,2072.576638,-72932.291410
1709.203205,42783.903448,-888.247130,-75383.797003
1709.205769,-24130.713709,9770.718434,-75996.673402
1709.208333,1184.329507,0.000000,-73698.386908
1709.210896,-3849.070898,-3701.029710,-81206.122788
1709.213460,13175.665768,1184.329507,-72166.195912
1709.216024,-148.041188,3701.029710,-75843.454302
1709.218587,-10510.924376,12287.418637,-68029.280222
1709.221151,12731.542202,-14063.912898,-83504.409282
1709.223715,-30940.608376,16136.489536,-68948.594820
1709.226278,33013.185013,-19097.313304,-82125.437386
1709.228842,-29312.155303,12731.542202,-70480.785816
1709.231406,34937.720462,-15544.324782,-86722.010374
1709.233970,3849.070898,-444.123565,-75077.358804
1709.236533,34493.596897,-6513.812290,-81512.560987
1709.239096,-22798.343014,4737.318029,-85649.476676
1709.241658,-8586.388927,-2220.617826,-69255.033019
1709.244220,-3552.988522,-22206.178260,-79673.931792
1709.246783,14359.995275,5921.647536,-78141.740796
1709.249345,-8586.388927,-24278.754898,-84576.942979
1709.251908,27239.578666,13323.706956,-68948.594820
1709.254470,-28868.031738,-16432.571912,-86109.133975
1709.257033,-47373.180288,9474.636058,-69561.471218
1709.259595,41895.656317,-21614.013506,-79980.369991
1709.262158,-52554.621882,16876.695478,-71246.881314
1709.264720,45596.686027,-14508.036463,-91931.459760
1709.267282,-23390.507767,12583.501014,-79827.150892
1709.269845,20281.642811,-2812.782580,-75537.016103
1709.272407,-30496.484810,2516.700203,-80593.246390
1709.274970,1776.494261,3701.029710,-74158.044206
1709.277532,-21169.889941,1628.453072,-77375.645298
1709.280095,14063.912898,-7105.977043,-78754.617194
1709.282657,6513.812290,-888.247130,-80133.589091
1709.285219,-10362.883188,2664.741391,-71706.538613
1709.287782,-8290.306550,-9030.512492,-75690.235202
1709.290344,-14508.036463,0.000000,-80440.027290
1709.292907,5477.523971,-15396.283594,-80133.589091
1709.295469,-35677.926404,16432.571912,-62666.611736
1709.298032,21910.095883,-16728.654289,-88560.639569
1709.300594,-5329.482782,13027.624579,-68642.156621
1709.303157,24130.713709,-15988.448347,-82738.313784
1709.305719,-30200.402434,10214.842000,-71553.319513
1709.308281,20429.683999,-7846.182985,-79214.274493
1709.310844,-13175.665768,3256.906145,-69561.471218
1709.313406,23686.590144,-12435.459826,-82431.875585
1709.315969,-3552.988522,-1036.288319,-77682.083497
1709.318531,-6365.771101,0.000000,-77528.864398
1709.321094,4293.194464,-10510.924376,-81512.560987
1709.323656,-7550.100608,-888.247130,-84423.723880
1709.326218,-11103.089130,-7846.182985,-77835.302597
1709.328781,-20725.766376,3701.029710,-72166.195912
1709.331343,5033.400406,-21614.013506,-89939.611465
1709.333906,-11843.295072,4145.153275,-72012.976812
1709.336468,34493.596897,-15100.201217,-79980.369991
1709.339031,-34789.679274,17024.736666,-68029.280222
1709.341590,39230.914926,-18209.066173,-83044.751983
1709.344150,-6513.812290,6069.688724,-74464.482406
1709.346709,8142.265362,-15100.201217,-81206.122788
1709.349269,31532.773129,-3256.906145,-82125.437386
1709.351828,-1184.329507,2664.741391,-69714.690318
1709.354388,10955.047942,3701.029710,-79673.931792
1709.356948,16284.530724,-2516.700203,-73391.948708
1709.359507,-22502.260637,-1480.411884,-76915.987999
1709.362067,15396.283594,-1924.535449,-76609.549800
1709.364626,-8882.471304,-740.205942,-78601.398095
1709.367186,3701.029710,-8882.471304,-78601.398095
1709.369745,28127.825796,-23538.548956,-83504.409282
1709.372305,-31976.896694,21762.054695,-68795.375720
1709.374864,25315.043216,-17024.736666,-84730.162079
1709.377424,-21021.848753,12879.583391,-68948.594820
1709.379984,22502.260637,-22206.178260,-89020.296868
1709.382543,11695.253884,16432.571912,-66497.089226
1709.385103,22798.343014,-12435.459826,-81359.341888
1709.387662,-11547.212695,10955.047942,-72779.072310
1709.390222,23242.466579,-5921.647536,-77988.521696
1709.392781,-22354.219448,888.247130,-73698.386908
1709.395341,14656.077652,-5921.647536,-77835.302597
1709.397901,7402.059420,740.205942,-78294.959896
1709.400460,-3849.070898,-2664.741391,-75996.673402
1709.403020,23094.425390,-9474.636058,-77988.521696
1709.405579,-31236.690752,5477.523971,-74004.825107
1709.408139,8882.471304,-4737.318029,-77222.426198
1709.410698,-32124.937883,11399.171507,-71093.662214
1709.413258,4589.276840,-19097.313304,-86262.353075
1709.415817,30348.443622,6069.688724,-69101.813920
1709.418377,-12435.459826,-9030.512492,-73851.606007
1709.420937,-25167.002028,2960.823768,-73698.386908
1709.423496,38194.626607,-18209.066173,-79214.274493
1709.426056,-36714.214723,-296.082377,-70327.566716
1709.428615,49149.674549,-7550.100608,-79673.931792
1709.431175,-12731.542202,12139.377449,-72472.634111
1709.433734,12139.377449,3552.988522,-76762.768900
1709.436294,-14656.077652,1036.288319,-79214.274493
1709.438853,4737.318029,-4145.153275,-77222.426198
1709.441413,-21021.848753,1924.535449,-76303.111601
1709.443971,-22502.260637,5181.441594,-75537.016103
1709.446530,16876.695478,-17616.901420,-85189.819378
1709.449088,-20133.601622,14804.118840,-69867.909418
1709.451647,26943.496289,-17024.736666,-80286.808190
1709.454205,-39526.997303,21762.054695,-66497.089226
1709.456763,13323.706956,-19985.560434,-81972.218286
1709.459322,-26055.249158,14359.995275,-66956.746525
1709.461880,35381.844028,-17024.736666,-82125.437386
1709.464438,-18357.107362,10214.842000,-70327.566716
1709.466997,23094.425390,-13027.624579,-84883.381178
1709.469555,-13619.789333,0.000000,-82891.532884
1709.472114,-6365.771101,-888.247130,-75230.577904
1709.474672,-16284.530724,-1480.411884,-77528.864398
1709.477230,3404.947333,-1332.370696,-76915.987999
1709.479789,5625.565159,-3849.070898,-80133.589091
1709.482347,-11399.171507,-1480.411884,-75077.358804
1709.484905,8438.347739,-6661.853478,-77835.302597
1709.487464,-28868.031738,-1036.288319,-70327.566716
1709.490022,20873.807564,-20281.642811,-77528.864398
1709.492581,-27683.702231,6809.894666,-70787.224015
1709.495139,-2960.823768,-20873.807564,-88407.420469
1709.497697,23242.466579,12287.418637,-63432.707234
1709.500256,-27091.537477,-9770.718434,-92697.555258
1709.502814,45300.603650,-4589.276840,-83810.847481
1709.505372,-1332.370696,-7550.100608,-84730.162079
1709.507931,-2664.741391,-8290.306550,-86568.791274
1709.510489,32124.937883,-1184.329507,-74617.701505
1709.513048,-32717.102636,2368.659014,-74311.263306
1709.515606,53738.951389,-6957.935855,-79367.493593
1709.518164,-30644.525999,6217.729913,-81359.341888
1709.520723,-26351.331535,148.041188,-75537.016103
1709.523281,32272.979071,-21021.848753,-75383.797003
1709.525839,-26795.455100,9178.553681,-68488.937521
1709.528398,11991.336260,-14656.077652,-83504.409282
1709.530956,-17024.736666,14952.160028,-69101.813920
1709.533514,16432.571912,-15396.283594,-87028.448573
1709.536073,-13619.789333,17912.983796,-67876.061123
1709.538631,29312.155303,-17616.901420,-79827.150892
1709.541190,-48705.550984,17764.942608,-70634.004916
1709.543748,38638.750172,-17764.942608,-89173.515967
1709.546241,7254.018232,148.041188,-83044.751983
1709.548733,12583.501014,2664.741391,-70787.224015
1709.551226,-5921.647536,2368.659014,-82585.094684
1709.553718,10955.047942,740.205942,-77835.302597
1709.556211,-12287.418637,-5477.523971,-81818.999186
1709.558703,15544.324782,-5477.523971,-75690.235202
1709.561196,-3997.112087,-1036.288319,-80440.027290
1709.563689,-2072.576638,-3256.906145,-74617.701505
1709.566181,27831.743419,-11399.171507,-81818.999186
1709.568674,-25759.166782,7994.224174,-66650.308326
1709.571166,22058.137072,-22058.137072,-82278.656485
1709.573659,-8882.471304,8882.471304,-67416.403824
1709.576152,19837.519246,-16284.530724,-88100.982270
1709.578644,18209.066173,12435.459826,-60521.544342
1709.581137,4293.194464,3552.988522,-70787.224015
1709.583629,-34049.473332,6365.771101,-76303.111601
1709.586122,42191.738694,-13471.748144,-78448.178995
1709.588614,-37158.338288,4441.235652,-70940.443115
1709.591107,31088.649564,-9326.594869,-84883.381178
1709.593600,-14804.118840,11547.212695,-79980.369991
1709.596092,-5477.523971,1036.288319,-77682.083497
1709.598585,296.082377,-10362.883188,-80746.465489
1709.601077,-14804.118840,-4293.194464,-79367.493593
1709.603570,-5625.565159,-7105.977043,-74311.263306
1709.606063,-26351.331535,6809.894666,-73698.386908
1709.608555,6217.729913,-18653.189738,-83044.751983
1709.611048,-14359.995275,12583.501014,-70940.443115
1709.613540,22502.260637,-16728.654289,-83044.751983
1709.616033,-33753.390955,22798.343014,-66037.431928
1709.618525,22206.178260,-15692.365970,-78141.740796
1709.621018,-14063.912898,3701.029710,-72166.195912
1709.623511,17616.901420,-4293.194464,-79061.055394
1709.626003,-7402.059420,-1184.329507,-79673.931792
1709.628496,12731.542202,-3404.947333,-76149.892501
1709.630988,-9918.759623,444.123565,-81665.780087
1709.633481,-148.041188,-296.082377,-74158.044206
1709.635973,-14063.912898,148.041188,-76762.768900
1709.638466,8734.430116,-1776.494261,-77222.426198
1709.640959,-19245.354492,-1036.288319,-78601.398095
1709.643451,-5329.482782,-888.247130,-68335.718422
1709.645960,12139.377449,-23242.466579,-84117.285680
1709.648468,-14063.912898,2960.823768,-78448.178995
1709.650976,33161.226202,-2072.576638,-70940.443115
1709.653485,-34789.679274,-1184.329507,-77988.521696
1709.655993,37454.420665,-5329.482782,-76456.330700
1709.658501,-35677.926404,4589.276840,-74158.044206
1709.661010,70171.523302,-10214.842000,-82891.532884
1709.663518,-17616.901420,17764.942608,-73851.606007
1709.666026,-148.041188,-7994.224174,-86109.133975
1709.668535,17320.819043,-2072.576638,-66803.527426
1709.671043,-43228.027013,12139.377449,-57457.162350
1709.673551,25611.125593,-12435.459826,-86875.229473
1709.676060,-16728.654289,14804.118840,-76456.330700
1709.678568,4737.318029,-16728.654289,-88560.639569
1709.681076,4737.318029,12583.501014,-70940.443115
1709.683585,28571.949361,-19393.395680,-80593.246390
1709.686093,-41007.409187,19245.354492,-61900.516238
1709.688601,29608.237680,-18209.066173,-88254.201370
1709.691109,-15988.448347,13175.665768,-67416.403824
1709.693618,39971.120868,-18357.107362,-84117.285680
1709.696126,-444.123565,-740.205942,-82278.656485
1709.698634,10510.924376,-2220.617826,-72472.634111
1709.701143,-14656.077652,0.000000,-80746.465489
1709.703651,7698.141797,-2664.741391,-77682.083497
1709.706159,5921.647536,-3256.906145,-78141.740796
1709.708668,-592.164754,0.000000,-75230.577904
1709.711176,5477.523971,-10066.800811,-81206.122788
1709.713684,-2072.576638,3108.864956,-75690.235202
1709.716193,-2812.782580,-15100.201217,-79367.493593
1709.718701,-19097.313304,4885.359217,-68642.156621
1709.721209,59808.640114,-19541.436869,-80746.465489
1709.723718,-33605.349767,15692.365970,-63279.488135
1709.726226,39082.873738,-10807.006753,-83657.628382
1709.728734,4885.359217,6661.853478,-72012.976812
1709.731243,740.205942,-6661.853478,-79673.931792
1709.733751,28719.990550,5773.606348,-72932.291410
1709.736259,-25018.960840,8586.388927,-72166.195912
1709.738768,-11251.130318,-9030.512492,-82891.532884
1709.741276,40563.285622,-13471.748144,-74311.263306
1709.743784,-31088.649564,-740.205942,-81972.218286
1709.746306,-9030.512492,2960.823768,-71246.881314
1709.748827,-2812.782580,-16876.695478,-80593.246390
1709.751348,-26795.455100,8290.306550,-77069.207099
1709.753870,-4589.276840,-15544.324782,-79061.055394
1709.756391,-12879.583391,6809.894666,-72625.853210
1709.758912,13767.830521,-14359.995275,-81972.218286
1709.761434,-26647.413912,20281.642811,-69255.033019
1709.763955,19541.436869,-17172.777854,-81359.341888
1709.766476,-26499.372724,13471.748144,-67416.403824
1709.768997,19541.436869,-5921.647536,-78141.740796
1709.771519,-13915.871710,2368.659014,-74464.482406
1709.774040,15988.448347,-1628.453072,-78601.398095
1709.776561,-4737.318029,1036.288319,-84117.285680
1709.779083,3997.112087,-2368.659014,-73085.510509
1709.781604,-19689.478057,2368.659014,-74311.263306
1709.784125,-13027.624579,592.164754,-78448.178995
1709.786646,-12435.459826,-7402.059420,-81818.999186
1709.789168,8142.265362,-1332.370696,-74004.825107
1709.791689,2516.700203,-11547.212695,-81818.999186
1709.794210,-36418.132346,15396.283594,-70480.785816
1709.796732,14952.160028,-13027.624579,-78601.398095
1709.799253,-33161.226202,10658.965565,-67722.842023
1709.801774,33161.226202,-20577.725188,-85649.476676
1709.804296,-17320.819043,16580.613101,-66343.870127
1709.806817,15248.242405,-10955.047942,-82431.875585
1709.809338,-25759.166782,4145.153275,-83504.409282
1709.811859,55219.363273,-21465.972318,-89173.515967
1709.814381,-26055.249158,8290.306550,-81818.999186
1709.816902,22798.343014,-3701.029710,-76149.892501
1709.819423,30940.608376,-18949.272115,-84730.162079
1709.821945,-28571.949361,5921.647536,-75383.797003
1709.824466,14508.036463,-17024.736666,-75996.673402
1709.826987,18653.189738,296.082377,-74311.263306
1709.829508,-24130.713709,-6957.935855,-73391.948708
1709.832030,-10214.842000,14952.160028,-70634.004916
1709.834551,21762.054695,-21169.889941,-85343.038477
1709.837072,-23538.548956,18209.066173,-61747.297139
1709.839594,37010.297100,-20577.725188,-87181.667672
1709.842115,-25167.002028,17764.942608,-68948.594820
1709.844636,10362.883188,-12879.583391,-85649.476676
1709.847167,-5329.482782,1628.453072,-74924.139704
1709.849697,23390.507767,-6957.935855,-76915.987999
1709.852228,-6069.688724,-148.041188,-79520.712692
1709.854758,7254.018232,-888.247130,-77988.521696
1709.857289,11843.295072,-4145.153275,-83044.751983
1709.859819,19541.436869,2516.700203,-72932.291410
1709.862350,-18505.148550,5477.523971,-74311.263306
1709.864880,8734.430116,-1628.453072,-77988.521696
1709.867411,26795.455100,-19985.560434,-79827.150892
1709.869941,-30792.567187,18061.024985,-66190.651027
1709.872472,38342.667796,-20873.807564,-84730.162079
1709.875003,1332.370696,16284.530724,-68029.280222
1709.877533,2960.823768,-10807.006753,-78754.617194
1709.880064,-23242.466579,14508.036463,-65118.117330
1709.882594,34049.473332,-23242.466579,-84270.504780
1709.885125,-17172.777854,6513.812290,-69867.909418
1709.887655,40711.326810,-12731.542202,-81972.218286
1709.890186,-2812.782580,13175.665768,-83964.066581
1709.892716,-54183.074954,9474.636058,-58682.915147
1709.895247,-2072.576638,-1776.494261,-78141.740796
1709.897777,-4589.276840,1480.411884,-69255.033019
1709.900308,1332.370696,-8290.306550,-73085.510509
1709.902838,-7698.141797,3849.070898,-77835.302597
1709.905369,1184.329507,-11251.130318,-79367.493593
1709.907899,-21169.889941,5773.606348,-69101.813920
1709.910430,5033.400406,-19689.478057,-84117.285680
1709.912960,-32272.979071,14063.912898,-72319.415011
1709.915491,6513.812290,-18505.148550,-83504.409282
1709.918021,-6809.894666,3552.988522,-71553.319513
1709.920552,28127.825796,-14804.118840,-85343.038477
1709.923082,-17616.901420,6217.729913,-73698.386908
1709.925613,19837.519246,-4589.276840,-79367.493593
1709.928144,-14656.077652,3404.947333,-77835.302597
1709.930674,12879.583391,-7698.141797,-77988.521696
1709.933205,-6661.853478,-296.082377,-74924.139704
1709.935735,-444.123565,-1480.411884,-75996.673402
1709.938266,-6365.771101,1332.370696,-79827.150892
1709.940796,4589.276840,-3108.864956,-76915.987999
1709.943327,8438.347739,-16728.654289,-79367.493593
1709.945857,-37306.379477,14359.995275,-70480.785816
1709.948395,148.041188,-17468.860231,-83351.190182
1709.950934,-16876.695478,10214.842000,-68948.594820
1709.953472,38786.791361,-21021.848753,-83964.066581
1709.956010,-34493.596897,20133.601622,-66343.870127
1709.958549,20873.807564,-13175.665768,-80746.465489
1709.961087,-36862.255912,10807.006753,-75537.016103
1709.963626,48409.468607,-25463.084405,-88254.201370
1709.966164,-20133.601622,17468.860231,-69255.033019
1709.968703,-1628.453072,1480.411884,-75077.358804
1709.971241,24870.919651,-8290.306550,-88407.420469
1709.973779,-25167.002028,5477.523971,-75996.673402
1709.976318,7402.059420,-9474.636058,-84730.162079
1709.978856,13471.748144,0.000000,-76303.111601
1709.981395,-26943.496289,-2220.617826,-72779.072310
1709.983933,18209.066173,6513.812290,-72319.415011
1709.986472,2812.782580,-19393.395680,-84576.942979
1709.989010,-4441.235652,7846.182985,-72932.291410
1709.991548,27979.784608,-10510.924376,-82278.656485
1709.994087,-29164.114115,10510.924376,-69867.909418
1709.996625,15544.324782,-19985.560434,-87794.544071
1709.999164,11991.336260,2220.617826,-73698.386908
1710.001702,24574.837274,-10362.883188,-76149.892501
1710.004241,2368.659014,4145.153275,-73851.606007
1710.006779,22946.384202,-5329.482782,-81665.780087
1710.009318,-9326.594869,-148.041188,-78601.398095
1710.011856,15544.324782,-3404.947333,-75996.673402
1710.014394,-148.041188,5625.565159,-75537.016103
1710.016933,-6661.853478,4293.194464,-73085.510509
1710.019471,10066.800811,-14656.077652,-78294.959896
1710.022010,-14656.077652,7846.182985,-74158.044206
1710.024548,31828.855506,-18061.024985,-80286.808190
1710.027087,-47373.180288,17024.736666,-67876.061123
1710.029625,24722.878463,-18061.024985,-83044.751983
1710.032163,-21317.931130,13767.830521,-67263.184724
1710.034702,19837.519246,-24870.919651,-91012.145162
1710.037240,18209.066173,18801.230927,-66190.651027
1710.039779,-9326.594869,-6809.894666,-79827.150892
1710.042317,-32124.937883,-296.082377,-84117.285680
1710.044856,23242.466579,-8142.265362,-78601.398095
1710.047394,-29016.072926,-3108.864956,-76149.892501
1710.049939,34493.596897,-3256.906145,-71553.319513
1710.052484,-10658.965565,6809.894666,-78294.959896
1710.055029,-3256.906145,-444.123565,-82431.875585
1710.057574,-10510.924376,-1628.453072,-73851.606007
1710.060119,-36714.214723,14952.160028,-64964.898230
1710.062664,7846.182985,-22798.343014,-89020.296868
1710.065209,-19689.478057,19837.519246,-64811.679131
1710.067754,26795.455100,-17764.942608,-81512.560987
1710.070298,-7698.141797,-444.123565,-79980.369991
1710.072843,21910.095883,-1184.329507,-75690.235202
1710.075388,-20281.642811,5329.482782,-74158.044206
1710.077933,-12879.583391,-2664.741391,-78448.178995
1710.080478,-2812.782580,-2072.576638,-81972.218286
1710.083023,1480.411884,-2516.700203,-74770.920605
1710.085568,-5181.441594,-3997.112087,-82738.313784
1710.088113,5181.441594,444.123565,-77375.645298
1710.090658,-11547.212695,-6365.771101,-78448.178995
1710.093203,-50778.127621,16728.654289,-68642.156621
1710.095748,10658.965565,-22206.178260,-81972.218286
1710.098293,-5625.565159,13027.624579,-68488.937521
1710.100838,22798.343014,-17616.901420,-85649.476676
1710.103383,-22650.301825,14063.912898,-71093.662214
1710.105928,40563.285622,-9622.677246,-79980.369991
1710.108473,-47817.303853,7254.018232,-73851.606007
1710.111017,43968.232955,-14952.160028,-80286.808190
1710.113562,-30200.402434,6809.894666,-67416.403824
1710.116107,64249.875766,-14359.995275,-80746.465489
1710.118652,8586.388927,-296.082377,-77835.302597
1710.121197,-11547.212695,-1628.453072,-74311.263306
1710.123742,11991.336260,-3404.947333,-80593.246390
1710.126287,-25463.084405,5181.441594,-67109.965625
1710.128832,4589.276840,-16136.489536,-76915.987999
1710.131377,-4589.276840,5921.647536,-78448.178995
1710.133922,9622.677246,-17024.736666,-82738.313784
1710.136467,3701.029710,12435.459826,-70787.224015
1710.139012,22206.178260,-16284.530724,-84117.285680
1710.141557,-41895.656317,20281.642811,-65271.336430
1710.144102,10955.047942,-13471.748144,-79827.150892
1710.146647,7846.182985,-1776.494261,-74617.701505
1710.149192,29904.320057,-7994.224174,-80440.027290
1710.151740,-2516.700203,5181.441594,-75690.235202
1710.154289,21169.889941,-148.041188,-73545.167808
1710.156838,-11695.253884,2960.823768,-77682.083497
1710.159387,14804.118840,-6365.771101,-78141.740796
1710.161936,148.041188,3108.864956,-73545.167808
1710.164485,3701.029710,-592.164754,-80440.027290
1710.167034,16580.613101,-16728.654289,-81818.999186
1710.169583,-12139.377449,11843.295072,-67569.622924
1710.172132,33309.267390,-20133.601622,-84883.381178
1710.174680,-38638.750172,18505.148550,-72319.415011
1710.177229,17616.901420,-13767.830521,-83197.971083
1710.179778,-10807.006753,8142.265362,-68795.375720
1710.182327,44412.356520,-20429.683999,-88560.639569
1710.184876,740.205942,15988.448347,-62513.392637
1710.187425,10066.800811,-1776.494261,-87488.105872
1710.189974,-38194.626607,8142.265362,-79214.274493
1710.192523,6957.935855,-14804.118840,-84117.285680
1710.195072,-8882.471304,4293.194464,-69714.690318
1710.197621,5477.523971,-6365.771101,-77222.426198
1710.200169,-1036.288319,-7105.977043,-81052.903688
1710.202718,-15840.407159,1036.288319,-79214.274493
1710.205267,3997.112087,-14359.995275,-80593.246390
1710.207816,-30644.525999,4885.359217,-68488.937521
1710.210365,-6661.853478,-18505.148550,-82891.532884
1710.212914,-14359.995275,11991.336260,-72319.415011
1710.215463,31828.855506,-17912.983796,-84883.381178
1710.218012,-9622.677246,9770.718434,-70021.128517
1710.220561,24278.754898,-8290.306550,-80593.246390
1710.223109,-17764.942608,4737.318029,-69714.690318
1710.225658,1332.370696,-2516.700203,-79520.712692
1710.228207,-12583.501014,1628.453072,-79827.150892
1710.230756,21465.972318,-5181.441594,-75996.673402
1710.233305,-2516.700203,2220.617826,-78448.178995
1710.235854,12435.459826,-4589.276840,-79827.150892
1710.238403,-21021.848753,3552.988522,-78294.959896
1710.240952,-41007.409187,5625.565159,-75383.797003
1710.243501,15988.448347,-18505.148550,-81052.903688
1710.246050,-32124.937883,11103.089130,-70174.347617
1710.248598,31236.690752,-21317.931130,-86568.791274
1710.251147,-11695.253884,21910.095883,-69561.471218
1710.253700,-3997.112087,-18505.148550,-86415.572174
1710.256252,-20577.725188,20873.807564,-62053.735338
1710.258804,4885.359217,-19541.436869,-85496.257577
1710.261356,3997.112087,5033.400406,-72472.634111
1710.263908,21465.972318,-15692.365970,-85343.038477
1710.266461,-2812.782580,-7846.182985,-90246.049664
1710.269013,18357.107362,2368.659014,-73698.386908
1710.271565,-31976.896694,-3404.947333,-80286.808190
1710.274117,21910.095883,-1776.494261,-80286.808190
1710.276669,-17024.736666,-4293.194464,-79520.712692
1710.279222,8142.265362,-7254.018232,-73851.606007
1710.281774,25018.960840,-11991.336260,-80286.808190
1710.284326,-6365.771101,7402.059420,-74924.139704
1710.286878,5329.482782,-6217.729913,-76762.768900
1710.289431,-29460.196492,6809.894666,-75383.797003
1710.291983,28571.949361,-20281.642811,-86722.010374
1710.294535,-11103.089130,11991.336260,-66650.308326
1710.297087,26203.290347,-10955.047942,-84117.285680
1710.299639,2368.659014,9178.553681,-75537.016103
1710.302192,30940.608376,-7402.059420,-75843.454302
1710.304744,-6069.688724,1184.329507,-75843.454302
1710.307296,30052.361245,-3701.029710,-76456.330700
1710.309848,-18801.230927,4737.318029,-76762.768900
1710.312401,14359.995275,-8142.265362,-80440.027290
1710.314953,5181.441594,-3404.947333,-81972.218286
1710.317505,-3108.864956,3997.112087,-74770.920605
1710.320057,12139.377449,-8290.306550,-76915.987999
1710.322609,-33161.226202,13471.748144,-75383.797003
1710.325162,2368.659014,-23390.507767,-83044.751983
1710.327714,-3849.070898,13323.706956,-68182.499322
1710.330266,4885.359217,-26795.455100,-87641.324971
1710.332818,16728.654289,12731.542202,-66956.746525
1710.335371,-22650.301825,-8882.471304,-81665.780087
1710.337925,-23390.507767,12731.542202,-67416.403824
1710.340478,31532.773129,-13471.748144,-71706.538613
1710.343031,-9474.636058,1924.535449,-74924.139704
1710.345584,7105.977043,296.082377,-77835.302597
1710.348138,-15988.448347,1628.453072,-79520.712692
1710.350691,14063.912898,-7402.059420,-79673.931792
1710.353244,-22058.137072,148.041188,-77528.864398
1710.355797,-3849.070898,296.082377,-76149.892501
1710.358351,-12139.377449,-6069.688724,-77682.083497
1710.360904,-10066.800811,-592.164754,-78294.959896
1710.363457,15692.365970,-16728.654289,-85496.257577
1710.366010,-18653.189738,5625.565159,-68335.718422
1710.368564,14656.077652,-14656.077652,-85189.819378
1710.371117,-24722.878463,10807.006753,-69408.252119
1710.373670,18505.148550,-15692.365970,-78754.617194
1710.376223,-18505.148550,7402.059420,-71246.881314
1710.378777,28423.908173,-11991.336260,-84576.942979
1710.381330,-8586.388927,6957.935855,-73085.510509
1710.383883,5329.482782,-7994.224174,-79214.274493
1710.386436,-11547.212695,4589.276840,-76303.111601
1710.388990,5181.441594,-7105.977043,-75996.673402
1710.391543,3108.864956,-3849.070898,-81206.122788
1710.394096,1332.370696,7698.141797,-76456.330700
1710.396649,-24278.754898,-15248.242405,-82125.437386
1710.399203,-13767.830521,7105.977043,-75690.235202
1710.401756,12287.418637,-23686.590144,-85802.695776
1710.404309,-16432.571912,8734.430116,-74464.482406
1710.406862,3997.112087,-24574.837274,-84883.381178
1710.409416,9622.677246,7698.141797,-70940.443115
1710.411969,6069.688724,-19837.519246,-82431.875585
1710.414522,-10066.800811,7846.182985,-71400.100414
1710.417075,56995.857534,-5773.606348,-79827.150892
1710.419629,-25463.084405,3849.070898,-78448.178995
1710.422182,13915.871710,2072.576638,-73698.386908
1710.424735,16876.695478,-4737.318029,-81665.780087
1710.427288,-2368.659014,0.000000,-70787.224015
1710.429842,5921.647536,2368.659014,-78754.617194
1710.432395,10066.800811,-888.247130,-79980.369991
1710.434948,-5625.565159,-2072.576638,-78141.740796
1710.437503,-9622.677246,-2960.823768,-75383.797003
1710.440058,9474.636058,-8142.265362,-77375.645298
1710.442614,-14063.912898,15248.242405,-68029.280222
1710.445169,26499.372724,-15692.365970,-83197.971083
1710.447724,-7254.018232,11843.295072,-69714.690318
1710.450279,42191.738694,-12139.377449,-84576.942979
1710.452834,-28127.825796,16284.530724,-66343.870127
1710.455389,22354.219448,-18209.066173,-83657.628382
1710.457944,7698.141797,4441.235652,-68642.156621
1710.460499,18061.024985,-10807.006753,-75077.358804
1710.463054,1776.494261,6217.729913,-73238.729609
1710.465610,31532.773129,-1776.494261,-78294.959896
1710.468165,-14508.036463,1184.329507,-76609.549800
1710.470720,14656.077652,-2812.782580,-73238.729609
1710.473275,-24130.713709,-4441.235652,-87947.763170
1710.475830,-66174.411215,24278.754898,-57457.162350
1710.478385,49593.798114,-24574.837274,-80286.808190
1710.480940,-30200.402434,17320.819043,-70021.128517
1710.483495,27239.578666,-19689.478057,-88254.201370
1710.486051,-11251.130318,14063.912898,-62819.830836
1710.488606,23242.466579,-13915.871710,-80593.246390
1710.491161,-38342.667796,10362.883188,-68335.718422
1710.493716,18061.024985,-14508.036463,-81052.903688
1710.496271,-296.082377,2220.617826,-78601.398095
1710.498826,-1036.288319,-2960.823768,-77069.207099
1710.501381,3108.864956,-5181.441594,-77528.864398
1710.503936,-10658.965565,-444.123565,-76456.330700
1710.506492,-8438.347739,-12435.459826,-80440.027290
1710.509047,-25611.125593,3997.112087,-69867.909418
1710.511602,2220.617826,-17468.860231,-83810.847481
1710.514157,-21614.013506,10362.883188,-74311.263306
1710.516712,27387.619854,-17172.777854,-81359.341888
1710.519267,-14656.077652,11843.295072,-68642.156621
1710.521822,10955.047942,-10955.047942,-80593.246390
1710.524377,-34937.720462,4145.153275,-72166.195912
1710.526933,33753.390955,-7698.141797,-77375.645298
1710.529488,-9770.718434,-2072.576638,-75690.235202
1710.532043,25018.960840,-4441.235652,-81052.903688
1710.534598,16580.613101,8882.471304,-70174.347617
1710.537153,-23982.672521,-4885.359217,-72779.072310
1710.539710,-29460.196492,-1036.288319,-81206.122788
1710.542267,1184.329507,-1924.535449,-73238.729609
1710.544824,67062.658345,-22798.343014,-83964.066581
1710.547380,-19393.395680,19541.436869,-70480.785816
1710.549937,21169.889941,-25759.166782,-89939.611465
1710.552494,-25463.084405,19689.478057,-65730.993728
1710.555051,-7846.182985,-25463.084405,-93310.431656
1710.557608,1776.494261,15840.407159,-62973.049936
1710.560165,22354.219448,-19097.313304,-89173.515967
1710.562722,-17468.860231,19393.395680,-65884.212828
1710.565279,67210.699534,-15692.365970,-76915.987999
1710.567835,-13915.871710,14656.077652,-63432.707234
1710.570392,-3256.906145,-296.082377,-75537.016103
1710.572949,-4885.359217,-148.041188,-75077.358804
1710.575506,4441.235652,-7105.977043,-77682.083497
1710.578063,12583.501014,-4737.318029,-76915.987999
1710.580620,9178.553681,888.247130,-72012.976812
1710.583177,592.164754,-3404.947333,-77222.426198
1710.585734,-7402.059420,0.000000,-78754.617194
1710.588290,-296.082377,-12435.459826,-77835.302597
1710.590847,-11695.253884,4441.235652,-71859.757712
1710.593404,13323.706956,-17172.777854,-81359.341888
1710.595961,5477.523971,8290.306550,-70634.004916
1710.598518,28719.990550,-7846.182985,-78448.178995
1710.601075,-4145.153275,6957.935855,-71553.319513
1710.603632,11695.253884,-4293.194464,-75537.016103
1710.606189,-28719.990550,-2220.617826,-78754.617194
1710.608745,55071.322085,-3404.947333,-76762.768900
1710.611302,-28719.990550,1036.288319,-75383.797003
1710.613859,31384.731941,-592.164754,-78754.617194
1710.616416,-33753.390955,6661.853478,-82431.875585
1710.618973,-9178.553681,-5773.606348,-83044.751983
1710.621530,740.205942,-23390.507767,-83657.628382
1710.624087,-3849.070898,9474.636058,-70787.224015
1710.626644,-888.247130,-14211.954086,-85649.476676
1710.629200,-28868.031738,12287.418637,-70787.224015
1710.631757,30792.567187,-19985.560434,-84270.504780
1710.634314,-49741.839302,26647.413912,-63279.488135
1710.636871,16728.654289,-24574.837274,-91471.802461
1710.639428,-18653.189738,20725.766376,-62666.611736
1710.641939,25463.084405,-19837.519246,-88100.982270
1710.644450,-8290.306550,3552.988522,-78754.617194
1710.646962,10214.842000,-1184.329507,-79214.274493
1710.649473,-15988.448347,4589.276840,-77069.207099
1710.651984,-8882.471304,-740.205942,-71553.319513
1710.654496,-15544.324782,-5625.565159,-82585.094684
1710.657007,10214.842000,-592.164754,-74158.044206
1710.659518,-4737.318029,-7994.224174,-80746.465489
1710.662030,-23242.466579,740.205942,-74924.139704
1710.664541,6957.935855,-10066.800811,-81512.560987
1710.667052,-25611.125593,7402.059420,-68029.280222
1710.669563,2812.782580,-17912.983796,-87641.324971
1710.672075,8586.388927,17468.860231,-62360.173537
1710.674586,2516.700203,-16432.571912,-77375.645298
1710.677097,-5033.400406,7550.100608,-67569.622924
1710.679609,12879.583391,-4293.194464,-79061.055394
1710.682120,27979.784608,-6217.729913,-84576.942979
1710.684631,10066.800811,2812.782580,-69561.471218
1710.687142,-1628.453072,-7254.018232,-84883.381178
1710.689654,6661.853478,-3404.947333,-72166.195912
1710.692165,-16876.695478,-6661.853478,-79520.712692
1710.694676,17320.819043,-1036.288319,-82431.875585
1710.697188,3849.070898,-8142.265362,-85189.819378
1710.699699,-27387.619854,7254.018232,-72472.634111
1710.702210,34937.720462,-18061.024985,-78294.959896
1710.704721,-30200.402434,12287.418637,-65424.555529
1710.707233,17024.736666,-18209.066173,-79827.150892
1710.709744,-19541.436869,18653.189738,-71706.538613
1710.712255,22946.384202,-18357.107362,-86415.572174
1710.714767,-14063.912898,16136.489536,-66956.746525
1710.717278,30940.608376,-18653.189738,-82278.656485
1710.719789,-7994.224174,1924.535449,-79061.055394
1710.722300,16284.530724,-3849.070898,-75077.358804
1710.724812,8586.388927,-5773.606348,-84576.942979
1710.727323,11399.171507,1776.494261,-74158.044206
1710.729834,-1480.411884,-3404.947333,-81512.560987
1710.732346,26351.331535,-1776.494261,-72932.291410
1710.734857,-27387.619854,592.164754,-79520.712692
1710.737368,-10214.842000,-2368.659014,-74617.701505
1710.739879,16136.489536,-13471.748144,-82125.437386
1710.742402,-4145.153275,17764.942608,-72166.195912
1710.744924,22058.137072,-22354.219448,-86722.010374
1710.747447,444.123565,13175.665768,-61747.297139
1710.749969,-25167.002028,-9326.594869,-77222.426198
1710.752492,-10362.883188,4145.153275,-67876.061123
1710.755014,23242.466579,-12139.377449,-76762.768900
1710.757537,-10362.883188,1776.494261,-76456.330700
1710.760059,36270.091158,-5477.523971,-81052.903688
1710.762582,-9326.594869,-2220.617826,-81972.218286
1710.765104,-592.164754,-1332.370696,-76149.892501
1710.767627,-28275.866984,-8882.471304,-79061.055394
1710.770149,-4737.318029,-592.164754,-79673.931792
1710.772672,4737.318029,-7994.224174,-81052.903688
1710.775194,-2072.576638,3404.947333,-68488.937521
1710.777717,18061.024985,-19393.395680,-82278.656485
1710.780239,-41155.450375,16728.654289,-68948.594820
1710.782761,10658.965565,-15840.407159,-81665.780087
1710.785284,-46781.015534,15248.242405,-71553.319513
1710.787806,14952.160028,-17764.942608,-85649.476676
1710.790329,-14656.077652,16580.613101,-68488.937521
1710.792851,32717.102636,-3849.070898,-75690.235202
1710.795374,-34789.679274,3404.947333,-82125.437386
1710.797896,18357.107362,-3552.988522,-78141.740796
1710.800419,-13915.871710,-2220.617826,-76456.330700
1710.802941,-1924.535449,-5477.523971,-79214.274493
1710.805464,15988.448347,4885.359217,-74924.139704
1710.807986,-1776.494261,-740.205942,-72319.415011
1710.810509,-11399.171507,6069.688724,-79367.493593
1710.813031,-11251.130318,1332.370696,-76303.111601
1710.815554,21762.054695,-14656.077652,-82891.532884
1710.818076,-17320.819043,21169.889941,-68948.594820
1710.820599,30200.402434,-25611.125593,-85802.695776
1710.823121,-15692.365970,17912.983796,-62666.611736
1710.825644,24722.878463,-22206.178260,-89020.296868
1710.828166,-2072.576638,10807.006753,-68795.375720
1710.830688,29164.114115,-11991.336260,-85955.914876
1710.833211,-29016.072926,9474.636058,-75077.358804
1710.835733,43968.232955,-11399.171507,-78601.398095
1710.838256,-5329.482782,-1628.453072,-74464.482406
1710.840778,25167.002028,-3404.947333,-77682.083497
1710.843310,10955.047942,-6069.688724,-83197.971083
1710.845843,-9918.759623,4293.194464,-72319.415011
1710.848375,6809.894666,-15692.365970,-78907.836294
1710.850907,-2516.700203,5773.606348,-67263.184724
1710.853439,6513.812290,-12435.459826,-79061.055394
1710.855971,-16580.613101,7994.224174,-78601.398095
1710.858503,25759.166782,-19097.313304,-84730.162079
1710.861036,-21465.972318,17468.860231,-66650.308326
1710.863568,33753.390955,-21910.095883,-85036.600278
1710.866100,-28275.866984,19541.436869,-67876.061123
1710.868632,21317.931130,-8290.306550,-77835.302597
1710.871164,2516.700203,-1924.535449,-79061.055394
1710.873696,19837.519246,-5181.441594,-77069.207099
1710.876229,24426.796086,6957.935855,-75383.797003
1710.878761,-26351.331535,4885.359217,-72932.291410
1710.881293,-7105.977043,-7698.141797,-78754.617194
1710.883825,-6957.935855,-9178.553681,-79980.369991
1710.886357,-25167.002028,-3552.988522,-76149.892501
1710.888889,-16876.695478,11695.253884,-71859.757712
1710.891421,39082.873738,-19985.560434,-84730.162079
1710.893954,-42339.779882,21465.972318,-72166.195912
1710.896486,-11103.089130,-7994.224174,-74311.263306
1710.899018,-24870.919651,-5033.400406,-81359.341888
1710.901550,23982.672521,-2368.659014,-75230.577904
1710.904082,-14804.118840,5181.441594,-78754.617194
1710.906614,29904.320057,-4293.194464,-80899.684589
1710.909147,-3849.070898,1332.370696,-79061.055394
1710.911679,-1332.370696,-1924.535449,-73391.948708
1710.914211,-5477.523971,2368.659014,-74617.701505
1710.916743,-25611.125593,2072.576638,-73238.729609
1710.919275,-6957.935855,-9622.677246,-81206.122788
1710.921807,-17320.819043,17172.777854,-69255.033019
1710.924339,27091.537477,-18801.230927,-85496.257577
1710.926872,-50482.045244,22206.178260,-69255.033019
1710.929404,22650.301825,-19837.519246,-86875.229473
1710.931936,-17468.860231,10658.965565,-70787.224015
1710.934468,2072.576638,-15248.242405,-83351.190182
1710.937000,13619.789333,9474.636058,-68182.499322
1710.939532,18801.230927,-6365.771101,-82891.532884
1710.942065,-11103.089130,4589.276840,-74158.044206
1710.944604,-1480.411884,0.000000,-72166.195912
1710.947143,8734.430116,4885.359217,-73545.167808
1710.949683,2812.782580,1184.329507,-77988.521696
1710.952222,-8882.471304,-8142.265362,-77682.083497
1710.954761,10658.965565,1036.288319,-77528.864398
1710.957300,-4589.276840,-14359.995275,-78448.178995
1710.959840,-5181.441594,5033.400406,-77222.426198
1710.962379,20133.601622,-12583.501014,-85496.257577
1710.964918,-37898.544230,12879.583391,-69867.909418
1710.967457,32717.102636,-17024.736666,-78754.617194
1710.969997,10362.883188,5033.400406,-72779.072310
1710.972536,22502.260637,-6513.812290,-74770.920605
1710.975075,-10066.800811,3997.112087,-77069.207099
1710.977614,27091.537477,-5329.482782,-80440.027290
1710.980154,-9918.759623,-1776.494261,-78601.398095
1710.982693,22354.219448,-5921.647536,-75077.358804
1710.985232,-3552.988522,3108.864956,-80440.027290
1710.987771,11251.130318,296.082377,-77682.083497
1710.990310,-4145.153275,-2516.700203,-81052.903688
1710.992850,14804.118840,-296.082377,-75537.016103
1710.995389,12879.583391,-19689.478057,-84576.942979
1710.997928,-23686.590144,13619.789333,-69714.690318
1711.000467,11991.336260,-16580.613101,-83044.751983
1711.003007,-26055.249158,8882.471304,-69714.690318
1711.005546,61437.093186,-14063.912898,-84423.723880
1711.008085,-26203.290347,18357.107362,-63585.926334
1711.010624,35825.967593,-9326.594869,-78601.398095
1711.013164,-51518.333563,15396.283594,-62666.611736
1711.015703,15544.324782,-19837.519246,-84883.381178
1711.018242,-6365.771101,3849.070898,-70940.443115
1711.020781,27979.784608,-2220.617826,-77988.521696
1711.023321,-20873.807564,2072.576638,-81665.780087
1711.025860,3849.070898,-3256.906145,-75230.577904
1711.028399,-20873.807564,-9622.677246,-76303.111601
1711.030938,-29460.196492,-2664.741391,-76303.111601
1711.033478,1924.535449,-15248.242405,-82278.656485
1711.036017,-9326.594869,6809.894666,-74464.482406
1711.038556,18949.272115,-15840.407159,-80746.465489
1711.041095,-16136.489536,17912.983796,-64658.460031
1711.043635,9474.636058,-19245.354492,-85343.038477
1711.046180,-26203.290347,5181.441594,-70940.443115
1711.048726,10214.842000,-11695.253884,-80440.027290
1711.051271,-6217.729913,3404.947333,-73238.729609
1711.053817,22354.219448,-8734.430116,-79520.712692
1711.056362,-15544.324782,296.082377,-79367.493593
1711.058908,12879.583391,888.247130,-74311.263306
1711.061453,-15692.365970,-5329.482782,-81512.560987
1711.063999,-7994.224174,-3108.864956,-73391.948708
1711.066544,1628.453072,2368.659014,-77375.645298
1711.069090,-25315.043216,14063.912898,-74617.701505
1711.071635,31828.855506,-22502.260637,-82738.313784
1711.074181,-32717.102636,23094.425390,-57610.381450
1711.076726,51074.209998,-20725.766376,-86568.791274
1711.079272,-33013.185013,25463.084405,-65118.117330
1711.081818,24130.713709,-25611.125593,-89479.954166
1711.084363,-14804.118840,15692.365970,-62666.611736
1711.086909,21910.095883,-23094.425390,-86109.133975
1711.089454,5033.400406,7698.141797,-70940.443115
1711.092000,38046.585419,-10955.047942,-85955.914876
1711.094545,-25463.084405,-3404.947333,-79673.931792
1711.097091,9770.718434,-7254.018232,-82891.532884
1711.099636,-3701.029710,-6069.688724,-82278.656485
1711.102182,-3404.947333,-740.205942,-72932.291410
1711.104727,17764.942608,-5921.647536,-80746.465489
1711.107273,-10066.800811,7698.141797,-72779.072310
1711.109818,5477.523971,-15840.407159,-75230.577904
1711.112364,1628.453072,6513.812290,-66037.431928
1711.114909,-5921.647536,-15544.324782,-82278.656485
1711.117455,-14656.077652,8586.388927,-75383.797003
1711.120001,50482.045244,-17468.860231,-80899.684589
1711.122546,16580.613101,7550.100608,-68948.594820
1711.125092,9030.512492,-888.247130,-77682.083497
1711.127637,-7994.224174,2516.700203,-74004.825107
1711.130183,16876.695478,-5625.565159,-72932.291410
1711.132728,-31384.731941,-4885.359217,-80440.027290
1711.135274,54183.074954,5477.523971,-75077.358804
1711.137819,-26055.249158,2960.823768,-80899.684589
1711.140365,14656.077652,1628.453072,-77222.426198
1711.142910,-29312.155303,2516.700203,-76609.549800
1711.145456,-36862.255912,10066.800811,-64658.460031
1711.148006,1184.329507,-25167.002028,-87181.667672
1711.150555,-2072.576638,19245.354492,-70021.128517
1711.153105,12731.542202,-16432.571912,-88100.982270
1711.155655,-23390.507767,15100.201217,-69561.471218
1711.158205,23390.507767,-14211.954086,-78907.836294
1711.160755,-50926.168810,15840.407159,-68029.280222
1711.163305,18801.230927,-16432.571912,-86568.791274
1711.165855,888.247130,7402.059420,-65118.117330
1711.168404,15988.448347,-6217.729913,-77528.864398
1711.170954,-11547.212695,1480.411884,-79061.055394
1711.173504,-6661.853478,-3108.864956,-79827.150892
1711.176054,-25167.002028,-5477.523971,-79214.274493
1711.178604,-18801.230927,-2516.700203,-76762.768900
1711.181154,1776.494261,-9770.718434,-81512.560987
1711.183703,-19245.354492,6513.812290,-75230.577904
1711.186253,9770.718434,-16136.489536,-82431.875585
1711.188803,-4737.318029,9326.594869,-72012.976812
1711.191353,-3552.988522,-17172.777854,-83044.751983
1711.193903,-24130.713709,18061.024985,-61440.858940
1711.196453,6957.935855,-12287.418637,-81818.999186
1711.199002,-21317.931130,5181.441594,-75230.577904
1711.201552,30940.608376,-9474.636058,-77375.645298
1711.204102,33457.308578,-6809.894666,-85036.600278
1711.206652,13915.871710,5477.523971,-70327.566716
1711.209202,-5033.400406,-7105.977043,-85955.914876
1711.211752,-16580.613101,4441.235652,-70174.347617
1711.214301,-13471.748144,-10214.842000,-87181.667672
1711.216851,46632.974346,148.041188,-68795.375720
1711.219401,-6513.812290,-13175.665768,-83964.066581
1711.221951,-21910.095883,19837.519246,-69255.033019
1711.224501,35085.761651,-17912.983796,-81972.218286
1711.227051,-55071.322085,19541.436869,-67109.965625
1711.229600,26351.331535,-26351.331535,-85802.695776
1711.232150,-18949.272115,14508.036463,-70174.347617
1711.234700,34789.679274,-19837.519246,-90858.926063
1711.237250,-148.041188,16432.571912,-67263.184724
1711.239800,42487.821071,-15840.407159,-80286.808190
1711.242350,-22206.178260,14952.160028,-64811.679131
1711.244899,16136.489536,-6513.812290,-78448.178995
1711.247449,-7550.100608,-5625.565159,-78601.398095
1711.250003,39526.997303,-6069.688724,-77222.426198
1711.252557,-3552.988522,1332.370696,-77375.645298
1711.255111,-1480.411884,-1036.288319,-76915.987999
1711.257665,-148.041188,-13619.789333,-84423.723880
1711.260218,-30644.525999,-1628.453072,-76149.892501
1711.262772,31976.896694,-18949.272115,-80593.246390
1711.265326,-45892.768404,13027.624579,-77988.521696
1711.267880,18209.066173,-25907.207970,-91778.240660
1711.270434,-2960.823768,4589.276840,-70174.347617
1711.272988,14952.160028,-16284.530724,-84270.504780
1711.275541,-32124.937883,5477.523971,-73085.510509
1711.278095,34937.720462,-6809.894666,-75077.358804
1711.280649,-19097.313304,-1332.370696,-81665.780087
1711.283203,16580.613101,-6513.812290,-82278.656485
1711.285757,-148.041188,-1036.288319,-77528.864398
1711.288311,-740.205942,-1480.411884,-74004.825107
1711.290864,-29164.114115,6661.853478,-80440.027290
1711.293418,14359.995275,-4441.235652,-74770.920605
1711.295972,17468.860231,-19245.354492,-82431.875585
1711.298526,-22946.384202,12287.418637,-68029.280222
1711.301080,9178.553681,-14359.995275,-81665.780087
1711.303634,-14063.912898,10510.924376,-71400.100414
1711.306187,12435.459826,-7550.100608,-78294.959896
1711.308741,-30644.525999,2664.741391,-74770.920605
1711.311295,22502.260637,-4589.276840,-77835.302597
1711.313849,-5921.647536,-2368.659014,-77069.207099
1711.316403,27979.784608,-8586.388927,-80593.246390
1711.318957,-12139.377449,10066.800811,-74311.263306
1711.321510,-40563.285622,7105.977043,-72472.634111
1711.324064,-22206.178260,-22650.301825,-85802.695776
1711.326618,592.164754,-148.041188,-80746.465489
1711.329172,21465.972318,-17024.736666,-86262.353075
1711.331726,-7254.018232,15544.324782,-64811.679131
1711.334280,55219.363273,-19097.313304,-85649.476676
1711.336833,-46040.809592,28275.866984,-60827.982541
1711.339387,25759.166782,-24426.796086,-87947.763170
1711.341941,-17024.736666,20725.766376,-60674.763442
1711.344495,26795.455100,-18357.107362,-85343.038477
1711.347049,888.247130,2368.659014,-75537.016103
1711.349603,36862.255912,148.041188,-77375.645298
1711.352160,-11547.212695,-1924.535449,-78141.740796
1711.354717,-444.123565,-1036.288319,-77528.864398
1711.357274,-2960.823768,-2664.741391,-74158.044206
1711.359831,-11843.295072,-888.247130,-68335.718422
1711.362389,15396.283594,-11843.295072,-75690.235202
1711.364946,15100.201217,4737.318029,-72319.415011
1711.367503,3256.906145,-10214.842000,-77069.207099
1711.370060,-13915.871710,7550.100608,-75996.673402
1711.372618,27387.619854,-19245.354492,-84423.723880
1711.375175,-1924.535449,7254.018232,-69101.813920
1711.377732,27683.702231,-8734.430116,-78141.740796
1711.380289,-15396.283594,9622.677246,-73698.386908
1711.382847,44116.274143,-10510.924376,-78141.740796
1711.385404,-11103.089130,1036.288319,-77988.521696
1711.387961,41155.450375,3108.864956,-75077.358804
1711.390518,-33309.267390,7994.224174,-78141.740796
1711.393075,-15396.283594,-9178.553681,-84270.504780
1711.395633,-2368.659014,-23834.631332,-82891.532884
1711.398190,-10214.842000,10955.047942,-66803.527426
1711.400747,2664.741391,-20133.601622,-86875.229473
1711.403304,-5477.523971,15248.242405,-70634.004916
1711.405862,2812.782580,-22058.137072,-91165.364262
1711.408419,-51814.415940,14359.995275,-69408.252119
1711.410976,19985.560434,-22206.178260,-82891.532884
1711.413533,-39675.038491,18801.230927,-71093.662214
1711.416091,35974.008781,-15248.242405,-87641.324971
1711.418648,-5921.647536,14508.036463,-66497.089226
1711.421205,26203.290347,-4293.194464,-76149.892501
1711.423762,-13619.789333,2516.700203,-76762.768900
1711.426319,-11695.253884,-3404.947333,-76149.892501
1711.428877,-22502.260637,-1924.535449,-78601.398095
1711.431434,7550.100608,-1480.411884,-77988.521696
1711.433991,-20577.725188,-4441.235652,-81665.780087
1711.436548,9326.594869,-2220.617826,-74770.920605
1711.439106,3997.112087,-12435.459826,-80593.246390
1711.441663,-28868.031738,7698.141797,-69255.033019
1711.444220,15544.324782,-17912.983796,-82738.313784
1711.446777,-41599.573940,17468.860231,-66497.089226
1711.449335,17172.777854,-15692.365970,-85649.476676
1711.451892,-9622.677246,13471.748144,-67569.622924
1711.454451,65286.164084,-17616.901420,-85649.476676
1711.457010,-27535.661042,12287.418637,-68029.280222
1711.459569,25018.960840,-13323.706956,-86262.353075
1711.462129,-28127.825796,5329.482782,-74924.139704
1711.464688,17320.819043,-11251.130318,-81665.780087
1711.467247,21762.054695,296.082377,-79367.493593
1711.469806,23538.548956,3997.112087,-73545.167808
1711.472365,-14508.036463,-13175.665768,-83504.409282
1711.474925,444.123565,6957.935855,-72472.634111
1711.477484,-740.205942,-18801.230927,-84117.285680
1711.480043,-22502.260637,11695.253884,-66956.746525
1711.482602,32865.143825,-18653.189738,-82585.094684
1711.485162,-19541.436869,11843.295072,-71246.881314
1711.487721,42931.944636,-18357.107362,-84117.285680
1711.490280,-17320.819043,16580.613101,-67416.403824
1711.492839,13767.830521,-15396.283594,-87488.105872
1711.495398,-6957.935855,9178.553681,-65118.117330
1711.497958,45448.644839,-2960.823768,-77682.083497
1711.500517,-14952.160028,7254.018232,-74924.139704
1711.503076,13915.871710,-3404.947333,-80746.465489
1711.505635,-7846.182985,-1776.494261,-76456.330700
1711.508194,-19689.478057,-6365.771101,-76303.111601
1711.510754,24426.796086,-8290.306550,-77528.864398
1711.513313,-38342.667796,5477.523971,-83964.066581
1711.515872,19097.313304,-17172.777854,-81512.560987
1711.518431,-18653.189738,8290.306550,-77835.302597
1711.520991,-13323.706956,-17912.983796,-82431.875585
1711.523550,-36566.173535,12583.501014,-66343.870127
1711.526109,40119.162056,-14804.118840,-80899.684589
1711.528668,-28719.990550,12287.418637,-72012.976812
1711.531227,32717.102636,-14804.118840,-85955.914876
1711.533787,-5329.482782,3404.947333,-76149.892501
1711.536346,-11547.212695,-148.041188,-79061.055394
1711.538905,-13915.871710,3256.906145,-76609.549800
1711.541464,25463.084405,148.041188,-71859.757712
1711.544023,-16728.654289,592.164754,-80286.808190
1711.546583,7994.224174,-6217.729913,-80746.465489
1711.549142,10807.006753,-17024.736666,-82278.656485
1711.551701,-38638.750172,15100.201217,-72779.072310
1711.554260,-444.123565,-22206.178260,-84730.162079
1711.556781,-39823.079680,16284.530724,-71246.881314
1711.559302,26203.290347,-21910.095883,-83964.066581
1711.561822,-8290.306550,12731.542202,-65424.555529
1711.564343,24870.919651,-14952.160028,-84117.285680
1711.566864,-5773.606348,15692.365970,-66650.308326
1711.569384,2368.659014,-6661.853478,-78141.740796
1711.571905,-37602.461854,5033.400406,-76915.987999
1711.574426,4737.318029,-3701.029710,-73085.510509
1711.576946,31532.773129,-6809.894666,-78448.178995
1711.579467,9918.759623,4885.359217,-74464.482406
1711.581988,4145.153275,-14359.995275,-87947.763170
1711.584508,-24130.713709,6661.853478,-74924.139704
1711.587029,-11251.130318,-17616.901420,-85649.476676
1711.589550,2664.741391,2368.659014,-73545.167808
1711.592070,13471.748144,-14952.160028,-81359.341888
1711.594591,-14508.036463,14508.036463,-70480.785816
1711.597112,44264.315332,-12139.377449,-82125.437386
1711.599632,-18801.230927,13027.624579,-76303.111601
1711.602153,12583.501014,-7994.224174,-83044.751983
1711.604674,-9030.512492,6069.688724,-66803.527426
1711.607194,22206.178260,-7994.224174,-80286.808190
1711.609715,7846.182985,1036.288319,-78907.836294
1711.612235,35529.885216,-2516.700203,-74464.482406
1711.614756,-11843.295072,4293.194464,-80133.589091
1711.617277,14508.036463,-3108.864956,-78294.959896
1711.619797,-444.123565,-5477.523971,-78448.178995
1711.622318,-22946.384202,11991.336260,-71706.538613
1711.624839,9474.636058,-19393.395680,-82738.313784
1711.627359,-10214.842000,11843.295072,-70634.004916
1711.629880,39971.120868,-16136.489536,-85496.257577
1711.632401,-11251.130318,21762.054695,-62513.392637
1711.634921,10955.047942,-7698.141797,-81972.218286
1711.637442,-53146.786636,13175.665768,-69408.252119
1711.639963,23094.425390,-20133.601622,-84117.285680
1711.642483,-20429.683999,5921.647536,-72319.415011
1711.645004,26647.413912,-14359.995275,-85649.476676
1711.647525,1332.370696,-740.205942,-79673.931792
1711.650045,-3849.070898,3256.906145,-80899.684589
1711.652566,-37306.379477,-1332.370696,-78448.178995
1711.655087,-9178.553681,-9622.677246,-80746.465489
1711.657617,-12583.501014,-3552.988522,-74311.263306
1711.660148,-12287.418637,-888.247130,-79214.274493
1711.662678,26647.413912,-15100.201217,-77528.864398
1711.665208,-18949.272115,14952.160028,-72779.072310
1711.667739,-1184.329507,-18209.066173,-82891.532884
1711.670269,-31532.773129,15248.242405,-64964.898230
1711.672800,13471.748144,-12435.459826,-80746.465489
1711.675330,-34345.555709,8438.347739,-72472.634111
1711.677860,47373.180288,-16136.489536,-81818.999186
1711.680391,10214.842000,3256.906145,-72932.291410
1711.682921,13027.624579,-888.247130,-75996.673402
1711.685452,-15840.407159,7254.018232,-74464.482406
1711.687982,-14508.036463,-1332.370696,-75537.016103
1711.690512,-42783.903448,-7846.182985,-87794.544071
1711.693043,38786.791361,-1480.411884,-72166.195912
1711.695573,12583.501014,-2664.741391,-83657.628382
1711.698104,-17320.819043,18653.189738,-66650.308326
1711.700634,29460.196492,-25315.043216,-89326.735067
1711.703164,-63509.669824,26647.413912,-65271.336430
1711.705695,14508.036463,-30348.443622,-92084.678860
1711.708225,148.041188,19985.560434,-61900.516238
1711.710756,43968.232955,-16876.695478,-84883.381178
1711.713286,2516.700203,20281.642811,-61440.858940
1711.715816,45152.562462,-10658.965565,-80593.246390
1711.718347,-11251.130318,-444.123565,-79673.931792
1711.720877,-17024.736666,-7105.977043,-80133.589091
1711.723408,-10362.883188,-23242.466579,-85189.819378
1711.725938,-6513.812290,13915.871710,-74464.482406
1711.728469,31680.814318,-21465.972318,-87488.105872
1711.730999,-6217.729913,18801.230927,-70174.347617
1711.733529,26647.413912,-15840.407159,-83657.628382
1711.736060,-28868.031738,15248.242405,-63892.364533
1711.738598,26795.455100,-22058.137072,-84730.162079
1711.741136,-14952.160028,10658.965565,-68795.375720
1711.743674,35381.844028,-9474.636058,-77528.864398
1711.746212,-3997.112087,5181.441594,-76762.768900
1711.748751,49593.798114,2812.782580,-75077.358804
1711.751289,-40415.244433,-3849.070898,-79980.369991
1711.753827,7846.182985,-7550.100608,-78448.178995
1711.756365,-28423.908173,148.041188,-73238.729609
1711.758903,-10510.924376,-7846.182985,-84730.162079
1711.761441,5033.400406,-1924.535449,-74004.825107
1711.763980,2664.741391,-592.164754,-77069.207099
1711.766518,5477.523971,-16432.571912,-82738.313784
1711.769056,-26647.413912,13915.871710,-72012.976812
1711.771594,-21169.889941,-19541.436869,-84423.723880
1711.774132,-30644.525999,5625.565159,-75996.673402
1711.776670,42339.779882,-14656.077652,-87181.667672
1711.779209,3701.029710,5773.606348,-69714.690318
1711.781747,13027.624579,-3997.112087,-80899.684589
1711.784285,-9178.553681,3701.029710,-75230.577904
1711.786823,-1332.370696,-2960.823768,-71706.538613
1711.789361,-29312.155303,-5181.441594,-83504.409282
1711.791899,2812.782580,2960.823768,-71706.538613
1711.794438,-14804.118840,-740.205942,-81052.903688
1711.796976,18801.230927,-740.205942,-76456.330700
1711.799514,17616.901420,-21317.931130,-84883.381178
1711.802052,-37454.420665,18357.107362,-63892.364533
1711.804590,-4441.235652,-21614.013506,-87641.324971
1711.807128,-43376.068201,12287.418637,-73391.948708
1711.809667,54479.157331,-23538.548956,-85343.038477
1711.812205,-15248.242405,25018.960840,-61440.858940
1711.814743,59364.516548,-20577.725188,-89173.515967
1711.817281,-4589.276840,17764.942608,-57457.162350
1711.819819,13471.748144,-16580.613101,-83810.847481
1711.822358,-17320.819043,3256.906145,-68948.594820
1711.824896,21910.095883,1776.494261,-69561.471218
1711.827434,-1332.370696,444.123565,-79214.274493
1711.829972,21762.054695,1184.329507,-76149.892501
1711.832510,-1332.370696,-9474.636058,-79367.493593
1711.835048,-16728.654289,-5773.606348,-80440.027290
1711.837587,2516.700203,-14063.912898,-76149.892501
1711.840131,-26647.413912,10362.883188,-72625.853210
1711.842676,20281.642811,-19097.313304,-83657.628382
1711.845220,6661.853478,14804.118840,-70021.128517
1711.847765,25759.166782,-18357.107362,-84576.942979
1711.850309,-19245.354492,8734.430116,-72012.976812
1711.852854,30052.361245,-7994.224174,-75077.358804
1711.855398,-4145.153275,-1776.494261,-76149.892501
1711.857942,23094.425390,-3849.070898,-76303.111601
1711.860487,-14508.036463,9622.677246,-71400.100414
1711.863031,29756.278868,-6365.771101,-83964.066581
1711.865576,-2516.700203,5625.565159,-74158.044206
1711.868120,8734.430116,2368.659014,-69408.252119
1711.870665,-20281.642811,2664.741391,-78907.836294
1711.873209,-27979.784608,-296.082377,-71246.881314
1711.875754,12879.583391,-25167.002028,-87488.105872
1711.878298,-21465.972318,22058.137072,-67722.842023
1711.880843,28571.949361,-21614.013506,-85189.819378
1711.883387,-20725.766376,20133.601622,-61440.858940
1711.885932,14952.160028,-16728.654289,-89173.515967
1711.888476,-38638.750172,14211.954086,-62360.173537
1711.891021,28719.990550,-18357.107362,-83657.628382
1711.893565,-14063.912898,2812.782580,-75077.358804
1711.896110,21762.054695,-5033.400406,-80746.465489
1711.898654,-1480.411884,4441.235652,-72625.853210
1711.901199,-296.082377,592.164754,-76609.549800
1711.903743,-20873.807564,-9918.759623,-81206.122788
1711.906288,-16136.489536,-1332.370696,-78448.178995
1711.908832,-11399.171507,-13619.789333,-81818.999186
1711.911377,-17764.942608,3849.070898,-75537.016103
1711.913921,16432.571912,-17912.983796,-86109.133975
1711.916466,-14508.036463,11399.171507,-71246.881314
1711.919010,3552.988522,-18505.148550,-81206.122788
1711.921555,-34493.596897,11251.130318,-73238.729609
1711.924099,7254.018232,-13767.830521,-84117.285680
1711.926644,16580.613101,1628.453072,-73698.386908
1711.929188,31088.649564,2516.700203,-75690.235202
1711.931733,444.123565,2812.782580,-76915.987999
1711.934277,29164.114115,3404.947333,-67263.184724
1711.936822,-23094.425390,1332.370696,-76303.111601
1711.939366,6957.935855,-3256.906145,-76303.111601
1711.941914,-7698.141797,3849.070898,-74464.482406
1711.944464,18209.066173,-7105.977043,-85189.819378
1711.947014,12731.542202,148.041188,-73391.948708
1711.949565,-22206.178260,15544.324782,-71093.662214
1711.952115,10362.883188,-20133.601622,-85649.476676
1711.954665,-19245.354492,11399.171507,-68335.718422
1711.957215,25018.960840,-15840.407159,-87794.544071
1711.959766,-18505.148550,17172.777854,-70480.785816
1711.962316,48853.592172,-17764.942608,-85036.600278
1711.964866,2072.576638,9178.553681,-69714.690318
1711.967416,26203.290347,-8142.265362,-81206.122788
1711.969966,-3404.947333,7994.224174,-69561.471218
1711.972517,24722.878463,-6809.894666,-79061.055394
1711.975067,-5181.441594,-6069.688724,-77682.083497
1711.977617,7105.977043,-148.041188,-75843.454302
1711.980167,-6365.771101,-9770.718434,-81818.999186
1711.982718,592.164754,7550.100608,-75843.454302
1711.985268,-12139.377449,-19837.519246,-84423.723880
1711.987818,-14804.118840,3108.864956,-74311.263306
1711.990368,-3108.864956,-24130.713709,-88560.639569
1711.992919,-31384.731941,12879.583391,-71093.662214
1711.995469,23094.425390,-15100.201217,-84730.162079
1711.998019,-17764.942608,12731.542202,-68948.594820
1712.000569,14656.077652,-8586.388927,-81512.560987
1712.003120,-8586.388927,1924.535449,-77222.426198
1712.005670,2368.659014,2220.617826,-68642.156621
1712.008220,-26943.496289,-7105.977043,-85802.695776
1712.010770,13323.706956,2812.782580,-72932.291410
1712.013320,1036.288319,-1776.494261,-78294.959896
1712.015871,-4441.235652,-148.041188,-73391.948708
1712.018421,-8290.306550,-5625.565159,-80133.589091
1712.020971,-8142.265362,888.247130,-74158.044206
1712.023521,-4145.153275,-19097.313304,-88867.077768
1712.026072,-30200.402434,16580.613101,-67876.061123
1712.028622,34641.638086,-19541.436869,-86262.353075
1712.031172,-13175.665768,12139.377449,-71553.319513
1712.033722,17024.736666,-11695.253884,-80899.684589
1712.036273,-18801.230927,7994.224174,-69255.033019
1712.038823,18209.066173,-12879.583391,-83964.066581
1712.041373,-17912.983796,8586.388927,-72932.291410
1712.043890,20725.766376,1480.411884,-72779.072310
1712.046408,32124.937883,-4737.318029,-80593.246390
1712.048925,13619.789333,3256.906145,-68335.718422
1712.051442,-5773.606348,-11547.212695,-77375.645298
1712.053959,-20873.807564,3108.864956,-77375.645298
1712.056477,-1184.329507,-14656.077652,-80286.808190
1712.058994,-1036.288319,1480.411884,-83964.066581
1712.061511,36418.132346,-18061.024985,-84423.723880
1712.064028,-20429.683999,16876.695478,-65118.117330
1712.066545,23834.631332,-21614.013506,-82585.094684
1712.069063,-23094.425390,15100.201217,-64505.240932
1712.071580,11991.336260,-18653.189738,-86415.572174
1712.074097,-13175.665768,2960.823768,-83657.628382
1712.076614,43820.191766,-1184.329507,-75230.577904
1712.079132,-1332.370696,148.041188,-76915.987999
1712.081649,17024.736666,1036.288319,-75690.235202
1712.084166,1332.370696,-1184.329507,-77222.426198
1712.086683,-444.123565,-3997.112087,-79367.493593
1712.089201,-14804.118840,-5033.400406,-82585.094684
1712.091718,9770.718434,148.041188,-75077.358804
1712.094235,-6069.688724,-8586.388927,-79827.150892
1712.096752,5921.647536,7846.182985,-78141.740796
1712.099270,6513.812290,-16284.530724,-79980.369991
1712.101787,-30052.361245,4441.235652,-75690.235202
1712.104304,11399.171507,-14952.160028,-86109.133975
1712.106821,-20577.725188,8142.265362,-69408.252119
1712.109339,24574.837274,-6069.688724,-80899.684589
1712.111856,-5921.647536,7402.059420,-70787.224015
1712.114373,25611.125593,-8586.388927,-74924.139704
1712.116890,-12139.377449,740.205942,-77988.521696
1712.119408,-1480.411884,444.123565,-70634.004916
1712.121925,-22946.384202,-7254.018232,-84117.285680
1712.124442,-10510.924376,3404.947333,-81665.780087
1712.126959,14656.077652,-12583.501014,-81206.122788
1712.129477,-17024.736666,7402.059420,-70634.004916
1712.131994,8438.347739,-15100.201217,-83351.190182
1712.134511,-30052.361245,10066.800811,-69867.909418
1712.137028,7846.182985,-12287.418637,-82585.094684
1712.139546,-13323.706956,4885.359217,-76915.987999
1712.142063,40415.244433,-6809.894666,-75230.577904
1712.144592,-10066.800811,3552.988522,-74464.482406
1712.147120,15544.324782,4293.194464,-73238.729609
1712.149649,-19393.395680,-6661.853478,-76915.987999
1712.152178,-41451.532752,-3256.906145,-81818.999186
1712.154707,20873.807564,-17616.901420,-86262.353075
1712.157236,11695.253884,2812.782580,-82278.656485
1712.159764,16728.654289,-14508.036463,-78907.836294
1712.162293,-3552.988522,3701.029710,-76762.768900
1712.164822,-1332.370696,-18653.189738,-81818.999186
1712.167351,-26647.413912,14804.118840,-68182.499322
1712.169880,35085.761651,-20429.683999,-86262.353075
1712.172409,-13619.789333,21762.054695,-64352.021832
1712.174937,29016.072926,1776.494261,-76915.987999
1712.177466,2220.617826,2072.576638,-74770.920605
1712.179995,6513.812290,-7994.224174,-74464.482406
1712.182524,-27535.661042,-1332.370696,-83504.409282
1712.185053,22058.137072,592.164754,-71246.881314
1712.187581,2664.741391,-4293.194464,-80899.684589
1712.190110,10807.006753,740.205942,-75077.358804
1712.192639,12435.459826,-7105.977043,-80746.465489
1712.195168,2812.782580,2220.617826,-72779.072310
1712.197697,-3256.906145,-16284.530724,-84270.504780
1712.200226,-21021.848753,6661.853478,-68642.156621
1712.202754,27979.784608,-15396.283594,-83810.847481
1712.205283,-20429.683999,11547.212695,-70327.566716
1712.207812,65286.164084,-13323.706956,-81206.122788
1712.210341,-23094.425390,11991.336260,-71093.662214
1712.212870,10955.047942,-6513.812290,-80440.027290
1712.215398,-29756.278868,8586.388927,-61747.297139
1712.217927,16432.571912,-8438.347739,-78141.740796
1712.220456,-12731.542202,5477.523971,-77682.083497
1712.222985,27387.619854,-1332.370696,-73545.167808
1712.225514,8734.430116,-12435.459826,-81665.780087
1712.228043,-21317.931130,3404.947333,-74158.044206
1712.230571,-19245.354492,-16580.613101,-80286.808190
1712.233100,-33309.267390,5329.482782,-79214.274493
1712.235629,15396.283594,-22798.343014,-85343.038477
1712.238158,-13619.789333,14656.077652,-69714.690318
1712.240687,27387.619854,-16728.654289,-82431.875585
1712.243215,-29608.237680,15248.242405,-70021.128517
1712.245717,5921.647536,-13471.748144,-84270.504780
1712.248219,-33753.390955,-296.082377,-79827.150892
1712.250721,15988.448347,-1480.411884,-70940.443115
1712.253223,2368.659014,-2960.823768,-80440.027290
1712.255724,19097.313304,1924.535449,-73851.606007
1712.258226,-11251.130318,6661.853478,-72472.634111
1712.260728,-11547.212695,-2516.700203,-74924.139704
1712.263230,-40415.244433,-8586.388927,-84730.162079
1712.265732,23242.466579,-5181.441594,-72319.415011
1712.268233,3701.029710,-3849.070898,-80440.027290
1712.270735,12287.418637,5329.482782,-74617.701505
1712.273237,50185.962868,-23094.425390,-85036.600278
1712.275739,-41895.656317,19985.560434,-62819.830836
1712.278241,15988.448347,-20873.807564,-84117.285680
1712.280742,-11547.212695,10362.883188,-63432.707234
1712.283244,41895.656317,-13027.624579,-86262.353075
1712.285746,14952.160028,7105.977043,-71859.757712
1712.288248,41303.491564,-2960.823768,-71859.757712
1712.290750,-30200.402434,2368.659014,-80593.246390
1712.293251,13619.789333,-8438.347739,-78141.740796
1712.295753,-9770.718434,888.247130,-75077.358804
1712.298255,888.247130,5033.400406,-72625.853210
1712.300757,15988.448347,-15100.201217,-81512.560987
1712.303259,9770.718434,8290.306550,-75383.797003
1712.305760,36566.173535,-15248.242405,-80746.465489
1712.308262,-42783.903448,19393.395680,-66343.870127
1712.310764,4737.318029,-27535.661042,-89326.735067
1712.313266,-30496.484810,16580.613101,-65118.117330
1712.315768,29164.114115,-25018.960840,-88867.077768
1712.318269,13027.624579,19393.395680,-69101.813920
1712.320771,35529.885216,-12879.583391,-84730.162079
1712.323273,-25907.207970,-3552.988522,-81206.122788
1712.325775,-18653.189738,-444.123565,-73851.606007
1712.328277,-24574.837274,-5477.523971,-80593.246390
1712.330778,3552.988522,7254.018232,-70480.785816
1712.333280,7402.059420,-296.082377,-81052.903688
1712.335782,19097.313304,1184.329507,-75996.673402
1712.338284,-13471.748144,-6365.771101,-80286.808190
1712.340786,-33309.267390,-296.082377,-75230.577904
1712.343287,-16580.613101,-16580.613101,-82585.094684
1712.345804,-25759.166782,6661.853478,-75230.577904
1712.348322,37602.461854,-18357.107362,-88407.420469
1712.350839,-1036.288319,11843.295072,-67876.061123
1712.353356,25759.166782,-8290.306550,-79214.274493
1712.355873,-36862.255912,9178.553681,-72932.291410
1712.358390,-4737.318029,-7994.224174,-76149.892501
1712.360907,-20429.683999,-1480.411884,-73391.948708
1712.363424,38786.791361,-10214.842000,-79827.150892
1712.365941,-5033.400406,4293.194464,-75230.577904
1712.368458,27091.537477,3849.070898,-73085.510509
1712.370975,-22206.178260,296.082377,-80593.246390
1712.373492,-50778.127621,11843.295072,-68642.156621
1712.376009,-17764.942608,-20133.601622,-92697.555258
1712.378526,33309.267390,9030.512492,-68488.937521
1712.381043,36862.255912,-17764.942608,-86415.572174
1712.383560,-5477.523971,7402.059420,-78601.398095
1712.386077,14804.118840,-15692.365970,-79520.712692
1712.388594,-39378.956114,8882.471304,-73085.510509
1712.391111,26499.372724,-16876.695478,-83504.409282
1712.393628,-4145.153275,14211.954086,-67109.965625
1712.396145,39082.873738,-8734.430116,-81206.122788
1712.398662,296.082377,-740.205942,-82585.094684
1712.401179,16876.695478,-1332.370696,-72319.415011
1712.403696,-25463.084405,1480.411884,-76456.330700
1712.406213,-9918.759623,592.164754,-79367.493593
1712.408730,5033.400406,-5033.400406,-77528.864398
1712.411247,13767.830521,-2220.617826,-74464.482406
1712.413764,23686.590144,-11695.253884,-81818.999186
1712.416281,11991.336260,5773.606348,-75996.673402
1712.418798,-5625.565159,-12435.459826,-82891.532884
1712.421315,-46781.015534,10066.800811,-72779.072310
1712.423832,22058.137072,-23834.631332,-85189.819378
1712.426349,9326.594869,11547.212695,-66037.431928
1712.428866,50482.045244,-5477.523971,-77528.864398
1712.431383,-11399.171507,12731.542202,-70940.443115
1712.433900,-3552.988522,2072.576638,-71706.538613
1712.436418,-29904.320057,-5181.441594,-84576.942979
1712.438935,3404.947333,1184.329507,-67876.061123
1712.441452,-22058.137072,444.123565,-78601.398095
1712.443969,33457.308578,-1332.370696,-76149.892501
1712.446498,12287.418637,-18061.024985,-84730.162079
1712.449028,-29608.237680,14508.036463,-70327.566716
1712.451558,-2664.741391,-19837.519246,-86109.133975
1712.454088,-50334.004056,15692.365970,-68488.937521
1712.456618,12879.583391,-23686.590144,-90399.268764
1712.459148,-9622.677246,12583.501014,-63739.145434
1712.461678,34789.679274,-21021.848753,-86262.353075
1712.464208,-32569.061448,21317.931130,-69561.471218
1712.466737,15988.448347,-14656.077652,-83657.628382
1712.469267,-34937.720462,10066.800811,-67722.842023
1712.471797,7254.018232,-2072.576638,-73698.386908
1712.474327,-17764.942608,-1036.288319,-79520.712692
1712.476857,20429.683999,-1480.411884,-77375.645298
1712.479387,-3849.070898,-4145.153275,-81818.999186
1712.481917,-30348.443622,7994.224174,-73698.386908
1712.484447,-8586.388927,-15840.407159,-88407.420469
1712.486976,11103.089130,148.041188,-80133.589091
1712.489506,9030.512492,-15100.201217,-80746.465489
1712.492036,0.000000,-4589.276840,-82278.656485
1712.494566,7994.224174,-17172.777854,-83351.190182
1712.497096,-16136.489536,5773.606348,-70480.785816
1712.499626,33901.432144,-11399.171507,-81972.218286
1712.502156,-1332.370696,6809.894666,-71859.757712
1712.504686,26647.413912,-1036.288319,-71246.881314
1712.507215,-3552.988522,2072.576638,-74770.920605
1712.509745,33457.308578,-6513.812290,-74464.482406
1712.512275,-19393.395680,4441.235652,-76456.330700
1712.514805,9178.553681,888.247130,-80440.027290
1712.517335,3701.029710,-740.205942,-80133.589091
1712.519865,15840.407159,-296.082377,-71400.100414
1712.522395,32124.937883,-19541.436869,-81206.122788
1712.524925,-17320.819043,14508.036463,-70787.224015
1712.527454,14063.912898,-21762.054695,-85649.476676
1712.529984,-28423.908173,18653.189738,-66037.431928
1712.532514,18801.230927,-26203.290347,-89479.954166
1712.535044,-6513.812290,17764.942608,-66343.870127
1712.537574,28423.908173,-15692.365970,-85343.038477
1712.540104,-13915.871710,7846.182985,-69714.690318
1712.542634,-2368.659014,5477.523971,-67569.622924
1712.545164,-15544.324782,-4589.276840,-85343.038477
1712.547668,-23686.590144,6661.853478,-74770.920605
1712.550173,15692.365970,-20873.807564,-82891.532884
1712.552678,-24574.837274,14804.118840,-72319.415011
1712.555183,16432.571912,-22798.343014,-85189.819378
1712.557688,-36862.255912,23834.631332,-62360.173537
1712.560193,9030.512492,-21465.972318,-88713.858668
1712.562698,-25611.125593,17320.819043,-66956.746525
1712.565203,30644.525999,-19541.436869,-83504.409282
1712.567708,-17912.983796,10955.047942,-68182.499322
1712.570213,17024.736666,-13175.665768,-79367.493593
1712.572718,-28127.825796,148.041188,-82585.094684
1712.575223,5773.606348,-888.247130,-76762.768900
1712.577727,-4589.276840,-4145.153275,-81359.341888
1712.580232,2960.823768,3404.947333,-72472.634111
1712.582737,-3701.029710,-1776.494261,-78907.836294
1712.585242,-15988.448347,2220.617826,-72932.291410
1712.587747,-31976.896694,-11695.253884,-84117.285680
1712.590252,10955.047942,-5625.565159,-79673.931792
1712.592757,15840.407159,-13915.871710,-82431.875585
1712.595262,1924.535449,8142.265362,-70021.128517
1712.597767,49297.715737,-17468.860231,-82891.532884
1712.600272,-30644.525999,10955.047942,-65118.117330
1712.602777,14952.160028,-14063.912898,-83657.628382
1712.605282,-7402.059420,8290.306550,-69714.690318
1712.607786,44412.356520,-11843.295072,-81052.903688
1712.610291,6069.688724,8142.265362,-73545.167808
1712.612796,34049.473332,-3552.988522,-79827.150892
1712.615301,-10510.924376,444.123565,-74924.139704
1712.617806,-3108.864956,296.082377,-72932.291410
1712.620311,-17616.901420,-2072.576638,-84270.504780
1712.622816,-888.247130,6661.853478,-72779.072310
1712.625321,31236.690752,-20133.601622,-85649.476676
1712.627826,6957.935855,13619.789333,-68335.718422
1712.630331,21910.095883,-15988.448347,-84270.504780
1712.632836,-40415.244433,15988.448347,-70480.785816
1712.635341,3552.988522,-22650.301825,-85343.038477
1712.637845,-26351.331535,8142.265362,-70940.443115
1712.640350,55515.445650,-16728.654289,-86415.572174
1712.642855,5181.441594,13915.871710,-67569.622924
1712.645360,28423.908173,-5181.441594,-77375.645298
1712.647881,-43672.150578,12287.418637,-68029.280222
1712.650402,-2368.659014,-9474.636058,-79214.274493
1712.652923,-24722.878463,6217.729913,-72012.976812
1712.655444,14359.995275,2516.700203,-73851.606007
1712.657964,14359.995275,-6809.894666,-83197.971083
1712.660485,-1184.329507,4589.276840,-73545.167808
1712.663006,-13767.830521,-10214.842000,-80440.027290
1712.665527,-27979.784608,0.000000,-77528.864398
1712.668048,-19541.436869,-9770.718434,-81052.903688
1712.670569,-21169.889941,18357.107362,-63585.926334
1712.673089,44412.356520,-21317.931130,-85649.476676
1712.675610,-16580.613101,11991.336260,-70174.347617
1712.678131,13027.624579,-7698.141797,-77835.302597
1712.680652,-27387.619854,2812.782580,-75996.673402
1712.683173,17912.983796,-9770.718434,-75230.577904
1712.685694,-18949.272115,2072.576638,-71553.319513
1712.688215,30496.484810,-3108.864956,-77222.426198
1712.690735,-3701.029710,4885.359217,-74158.044206
1712.693256,-4885.359217,-2220.617826,-81665.780087
1712.695777,-2516.700203,-14804.118840,-89326.735067
1712.698298,-5181.441594,-740.205942,-82431.875585
1712.700819,14952.160028,-18209.066173,-77222.426198
1712.703340,-444.123565,2960.823768,-76149.892501
1712.705860,15100.201217,-19689.478057,-87794.544071
1712.708381,-17172.777854,15396.283594,-67876.061123
1712.710902,24426.796086,-19689.478057,-84730.162079
1712.713423,-19245.354492,19097.313304,-66497.089226
1712.715944,31532.773129,-17912.983796,-82585.094684
1712.718465,-7550.100608,11695.253884,-67263.184724
1712.720986,29756.278868,-3552.988522,-73391.948708
1712.723506,-7698.141797,3256.906145,-76915.987999
1712.726027,14359.995275,1332.370696,-73545.167808
1712.728548,-9622.677246,296.082377,-79214.274493
1712.731069,18505.148550,-888.247130,-73391.948708
1712.733590,14804.118840,-4589.276840,-79214.274493
1712.736111,444.123565,3108.864956,-74311.263306
1712.738631,-7105.977043,-12583.501014,-85189.819378
1712.741152,-5477.523971,-888.247130,-76456.330700
1712.743673,-9918.759623,-14804.118840,-86109.133975
1712.746194,-8142.265362,18209.066173,-67109.965625
1712.748728,16876.695478,-18061.024985,-85802.695776
1712.751263,-21169.889941,3701.029710,-77069.207099
1712.753797,10807.006753,-11695.253884,-77988.521696
1712.756332,-18061.024985,3552.988522,-72932.291410
1712.758866,18061.024985,-4589.276840,-78448.178995
1712.761400,-9622.677246,6809.894666,-72625.853210
1712.763935,23538.548956,-2664.741391,-73238.729609
1712.766469,-8586.388927,-1628.453072,-78448.178995
1712.769003,2960.823768,740.205942,-71706.538613
1712.771538,-12879.583391,-12879.583391,-82585.094684
1712.774072,-20577.725188,4145.153275,-83504.409282
1712.776606,3997.112087,-14656.077652,-83964.066581
1712.779141,-19097.313304,6661.853478,-69561.471218
1712.781675,1924.535449,-19985.560434,-84576.942979
1712.784210,-39526.997303,19393.395680,-68029.280222
1712.786744,13915.871710,-24426.796086,-87794.544071
1712.789278,-16284.530724,14359.995275,-69255.033019
1712.791813,13767.830521,-19097.313304,-89326.735067
1712.794347,-19985.560434,2960.823768,-74770.920605
1712.796881,12435.459826,-4441.235652,-78141.740796
1712.799416,-17024.736666,4145.153275,-71246.881314
1712.801950,10214.842000,2664.741391,-68642.156621
1712.804485,24278.754898,-4293.194464,-86109.133975
1712.807019,22206.178260,7846.182985,-68795.375720
1712.809553,-1184.329507,-6069.688724,-80899.684589
1712.812088,-18949.272115,1184.329507,-75843.454302
1712.814622,-9178.553681,-10807.006753,-83044.751983
1712.817156,5181.441594,0.000000,-72779.072310
1712.819691,13767.830521,-7402.059420,-89479.954166
1712.822225,-7846.182985,25167.002028,-64964.898230
1712.824760,32421.020260,-18949.272115,-84270.504780
1712.827294,-27831.743419,12583.501014,-67263.184724
1712.829828,18209.066173,-19393.395680,-85649.476676
1712.832363,-17912.983796,6069.688724,-71706.538613
1712.834897,42043.697506,-11103.089130,-80286.808190
1712.837431,18061.024985,7402.059420,-71859.757712
1712.839966,46336.891969,-5625.565159,-76762.768900
1712.842500,-16580.613101,5329.482782,-73851.606007
1712.845035,-3108.864956,-1776.494261,-77988.521696
1712.847569,-16432.571912,-9770.718434,-79827.150892
1712.850114,9918.759623,-1332.370696,-79367.493593
1712.852659,26795.455100,-10658.965565,-80133.589091
1712.855203,-12435.459826,14952.160028,-69867.909418
1712.857748,-7105.977043,-17024.736666,-80286.808190
1712.860293,-41895.656317,10362.883188,-74311.263306
1712.862838,-6069.688724,-21614.013506,-86109.133975
1712.865383,-31236.690752,11103.089130,-71246.881314
1712.867928,37010.297100,-21465.972318,-88713.858668
1712.870472,3404.947333,1036.288319,-76762.768900
1712.873017,11991.336260,-3552.988522,-74617.701505
1712.875562,-38786.791361,3701.029710,-82431.875585
1712.878107,7994.224174,740.205942,-70480.785816
1712.880652,-17024.736666,0.000000,-78294.959896
1712.883197,14063.912898,1480.411884,-74158.044206
1712.885741,-6661.853478,-444.123565,-77375.645298
1712.888286,6365.771101,-296.082377,-75230.577904
1712.890831,-21317.931130,1924.535449,-80746.465489
1712.893376,-6217.729913,-2960.823768,-75690.235202
1712.895921,-2812.782580,-24426.796086,-84423.723880
1712.898466,-19245.354492,14359.995275,-69561.471218
1712.901010,31532.773129,-18209.066173,-83657.628382
1712.903555,-26499.372724,22354.219448,-65271.336430
1712.906100,25907.207970,-17764.942608,-86722.010374
1712.908645,3849.070898,5181.441594,-74770.920605
1712.911190,24426.796086,-9178.553681,-78294.959896
1712.913735,-7402.059420,-4441.235652,-80133.589091
1712.916279,17616.901420,-7698.141797,-76609.549800
1712.918824,-5773.606348,-4145.153275,-80440.027290
1712.921369,16136.489536,-740.205942,-76915.987999
1712.923914,4441.235652,-1628.453072,-80133.589091
1712.926459,1184.329507,3108.864956,-73851.606007
1712.929003,-592.164754,-10362.883188,-80593.246390
1712.931548,-20577.725188,3997.112087,-72319.415011
1712.934093,13471.748144,-21169.889941,-82891.532884
1712.936638,-9326.594869,8882.471304,-74617.701505
1712.939183,24870.919651,-19985.560434,-90552.487864
1712.941728,-3997.112087,17764.942608,-67109.965625
1712.944272,29460.196492,-19097.313304,-81665.780087
1712.946817,-21317.931130,3552.988522,-71553.319513
1712.949362,23538.548956,-8882.471304,-73391.948708
1712.951915,-12583.501014,-2664.741391,-82585.094684
1712.954469,18061.024985,1480.411884,-79520.712692
1712.957022,-7994.224174,-5773.606348,-82585.094684
1712.959576,-12879.583391,-7105.977043,-82891.532884
1712.962130,-27091.537477,-11695.253884,-79367.493593
1712.964684,-23982.672521,-2072.576638,-73851.606007
1712.967238,148.041188,-14359.995275,-81512.560987
1712.969792,-8882.471304,9474.636058,-77222.426198
1712.972345,40119.162056,-14508.036463,-81972.218286
1712.974899,-14063.912898,6513.812290,-69714.690318
1712.977453,-3997.112087,-3108.864956,-77375.645298
1712.980007,-25463.084405,296.082377,-74464.482406
1712.982561,15840.407159,-148.041188,-73545.167808
1712.985114,-7698.141797,2368.659014,-80746.465489
1712.987668,23242.466579,-2368.659014,-73545.167808
1712.990222,-22650.301825,296.082377,-78907.836294
1712.992776,2812.782580,2516.700203,-75537.016103
1712.995330,-19837.519246,-4145.153275,-80133.589091
1712.997884,-31680.814318,7402.059420,-71553.319513
1713.000437,16728.654289,-19541.436869,-86722.010374
1713.002991,-18653.189738,15840.407159,-68029.280222
1713.005545,0.000000,-22058.137072,-91625.021561
1713.008099,-3701.029710,14508.036463,-66497.089226
1713.010653,18209.066173,-14804.118840,-82125.437386
1713.013207,-9918.759623,14656.077652,-66343.870127
1713.015760,51222.251186,-11103.089130,-79214.274493
1713.018314,-8882.471304,13471.748144,-63739.145434
1713.020868,21910.095883,-13471.748144,-83964.066581
1713.023422,-7402.059420,4293.194464,-77069.207099
1713.025976,16432.571912,2516.700203,-72012.976812
1713.028529,-10066.800811,2960.823768,-76303.111601
1713.031083,16728.654289,-9178.553681,-81818.999186
1713.033610,-1036.288319,-7994.224174,-80286.808190
1713.036137,-3997.112087,-3108.864956,-75996.673402
1713.038663,2960.823768,-13767.830521,-82125.437386
1713.041190,-11843.295072,7550.100608,-71859.757712
1713.043716,21465.972318,-17468.860231,-82431.875585
1713.046243,-888.247130,12287.418637,-70787.224015
1713.048770,31828.855506,-16432.571912,-85036.600278
1713.051296,-20429.683999,12139.377449,-66343.870127
1713.053823,25018.960840,-11399.171507,-84730.162079
1713.056350,740.205942,7254.018232,-72625.853210
1713.058876,33457.308578,3404.947333,-66650.308326
1713.061403,-17912.983796,2664.741391,-77988.521696
1713.063930,-4737.318029,1480.411884,-69714.690318
1713.066456,-10362.883188,-12139.377449,-87028.448573
1713.068983,3997.112087,3552.988522,-69867.909418
1713.071510,-18801.230927,3256.906145,-80440.027290
1713.074036,-14359.995275,7254.018232,-73698.386908
1713.076563,10807.006753,-18061.024985,-84423.723880
1713.079089,-32717.102636,15396.283594,-65577.774629
1713.081616,14804.118840,-28275.866984,-87334.886772
1713.084143,-38046.585419,20873.807564,-70480.785816
1713.086669,23242.466579,-20873.807564,-90092.830565
1713.089196,-27683.702231,14804.118840,-67416.403824
1713.091723,14804.118840,-19837.519246,-87334.886772
1713.094249,-19393.395680,9030.512492,-68029.280222
1713.096776,27979.784608,-10362.883188,-76456.330700
1713.099303,-17024.736666,3701.029710,-76456.330700
1713.101829,2664.741391,296.082377,-74617.701505
1713.104356,-11547.212695,-592.164754,-78294.959896
1713.106882,-12139.377449,-296.082377,-78448.178995
1713.109409,7698.141797,-4293.194464,-71706.538613
1713.111936,-9622.677246,4737.318029,-69867.909418
1713.114462,22206.178260,-17172.777854,-87488.105872
1713.116989,592.164754,8882.471304,-74311.263306
1713.119516,18061.024985,-19689.478057,-82431.875585
1713.122042,-34049.473332,9178.553681,-68795.375720
1713.124569,22502.260637,-17172.777854,-83044.751983
1713.127096,-4589.276840,5181.441594,-72625.853210
1713.129622,43968.232955,-9622.677246,-79827.150892
1713.132149,11695.253884,3849.070898,-72012.976812
1713.134688,20873.807564,-3256.906145,-76915.987999
1713.137227,-18061.024985,3256.906145,-80593.246390
1713.139766,12879.583391,148.041188,-71553.319513
1713.142306,-12879.583391,-888.247130,-80593.246390
1713.144845,33013.185013,3701.029710,-73851.606007
1713.147384,15988.448347,-4145.153275,-82585.094684
1713.149923,-13175.665768,6809.894666,-72779.072310
1713.152463,7550.100608,-21169.889941,-85496.257577
1713.155002,-38046.585419,13619.789333,-70327.566716
1713.157541,25759.166782,-22206.178260,-86109.133975
1713.160080,-12139.377449,21169.889941,-67263.184724
1713.162619,28571.949361,-12583.501014,-81206.122788
1713.165159,-33901.432144,17320.819043,-63739.145434
1713.167698,23834.631332,-18505.148550,-85649.476676
1713.170237,-34049.473332,11991.336260,-67569.622924
1713.172776,9770.718434,-17764.942608,-70174.347617
1713.175315,-2960.823768,-4885.359217,-83044.751983
1713.177855,14359.995275,1036.288319,-72166.195912
1713.180394,-11399.171507,-4293.194464,-81206.122788
1713.182933,-1776.494261,-2220.617826,-77988.521696
1713.185472,-20133.601622,296.082377,-76456.330700
1713.188011,-18505.148550,-1036.288319,-80593.246390
1713.190551,-11399.171507,-8290.306550,-81818.999186
1713.193090,-20577.725188,3552.988522,-71859.757712
1713.195629,12731.542202,-24722.878463,-85955.914876
1713.198168,-10955.047942,11843.295072,-70634.004916
1713.200707,18653.189738,-14656.077652,-82431.875585
1713.203247,-29608.237680,13175.665768,-68182.499322
1713.205786,16876.695478,-13027.624579,-81052.903688
1713.208325,-32124.937883,1924.535449,-75537.016103
1713.210864,47225.139100,-7550.100608,-73238.729609
1713.213404,7105.977043,2516.700203,-78294.959896
1713.215943,36714.214723,4885.359217,-71553.319513
1713.218482,-1184.329507,5773.606348,-77988.521696
1713.221021,10214.842000,0.000000,-70480.785816
1713.223560,-3256.906145,-23982.672521,-87181.667672
1713.226100,-9770.718434,9622.677246,-67263.184724
1713.228639,26647.413912,-18209.066173,-87488.105872
1713.231178,-592.164754,13175.665768,-70327.566716
1713.233717,32124.937883,-19541.436869,-85802.695776
1713.236267,-27979.784608,17172.777854,-70480.785816
1713.238816,17320.819043,-22502.260637,-83657.628382
1713.241366,-28719.990550,15544.324782,-63279.488135
1713.243916,42339.779882,-21021.848753,-88254.201370
1713.246465,12287.418637,9178.553681,-69255.033019
1713.249015,29904.320057,-888.247130,-78141.740796
1713.251565,-20873.807564,1628.453072,-81512.560987
1713.254114,4589.276840,-3552.988522,-73698.386908
1713.256664,-28127.825796,-7550.100608,-81818.999186
1713.259214,10955.047942,4293.194464,-77222.426198
1713.261763,3997.112087,-9770.718434,-83504.409282
1713.264313,3997.112087,-1480.411884,-76456.330700
1713.266863,-20429.683999,-5625.565159,-79520.712692
1713.269412,-19393.395680,-3997.112087,-74924.139704
1713.271962,-15544.324782,-10658.965565,-77222.426198
1713.274512,-18505.148550,18209.066173,-65730.993728
1713.277061,40859.367998,-18949.272115,-84117.285680
1713.279611,0.000000,7698.141797,-69867.909418
1713.282161,18209.066173,-4145.153275,-78601.398095
1713.284710,-30940.608376,1184.329507,-77988.521696
1713.287260,6661.853478,-1776.494261,-74924.139704
1713.289809,-20725.766376,2960.823768,-80899.684589
1713.292359,8586.388927,-1332.370696,-71400.100414
1713.294909,-7254.018232,-1628.453072,-78907.836294
1713.297458,-3256.906145,2960.823768,-79367.493593
1713.300008,4145.153275,-13915.871710,-80746.465489
1713.302558,-43672.150578,10510.924376,-74311.263306
1713.305107,4293.194464,-24278.754898,-85955.914876
1713.307657,-35233.802839,13619.789333,-71093.662214
1713.310207,25907.207970,-17616.901420,-81818.999186
1713.312756,-15100.201217,21762.054695,-63739.145434
1713.315306,63953.793389,-30792.567187,-93157.212557
1713.317856,-23390.507767,24130.713709,-66037.431928
1713.320405,32124.937883,-23834.631332,-87947.763170
1713.322955,-36270.091158,3552.988522,-74617.701505
1713.325505,20873.807564,-3404.947333,-74158.044206
1713.328054,3701.029710,-2812.782580,-81512.560987
1713.330604,33013.185013,740.205942,-74464.482406
1713.333154,-1184.329507,2516.700203,-80286.808190
1713.335703,-1036.288319,-4293.194464,-78601.398095
1713.338261,-11103.089130,-10214.842000,-76762.768900
1713.340820,-8882.471304,592.164754,-71553.319513
1713.343378,10066.800811,-13323.706956,-80286.808190
1713.345936,9030.512492,6513.812290,-73391.948708
1713.348494,46188.850781,-11547.212695,-83964.066581
1713.351052,-20429.683999,11547.212695,-69101.813920
1713.353611,15988.448347,-14508.036463,-80133.589091
1713.356169,-31236.690752,4589.276840,-73238.729609
1713.358727,35825.967593,-9474.636058,-81512.560987
1713.361285,9770.718434,8290.306550,-69867.909418
1713.363843,25907.207970,-1332.370696,-78601.398095
1713.366402,-25611.125593,9622.677246,-71246.881314
1713.368960,-15544.324782,-4589.276840,-77222.426198
1713.371518,-22946.384202,-5625.565159,-75077.358804
1713.374076,-20281.642811,15840.407159,-64964.898230
1713.376634,40415.244433,-17764.942608,-85802.695776
1713.379193,-4145.153275,9770.718434,-72779.072310
1713.381751,20577.725188,-8290.306550,-74617.701505
1713.384309,-36418.132346,4737.318029,-73851.606007
1713.386867,8438.347739,-5773.606348,-81052.903688
1713.389425,-18209.066173,3997.112087,-74311.263306
1713.391984,16136.489536,-3552.988522,-73698.386908
1713.394542,-1628.453072,-3701.029710,-79214.274493
1713.397100,25167.002028,-148.041188,-74004.825107
1713.399658,-11695.253884,-6661.853478,-80286.808190
1713.402216,-37454.420665,4441.235652,-75077.358804
1713.404775,-5033.400406,-22058.137072,-84117.285680
1713.407333,-31976.896694,8290.306550,-75843.454302
1713.409891,47817.303853,-23982.672521,-81665.780087
1713.412449,-15988.448347,25611.125593,-58223.257848
1713.415007,51962.457128,-27091.537477,-94382.965354
1713.417566,-23242.466579,28127.825796,-60215.106143
1713.420124,18653.189738,-26203.290347,-87641.324971
1713.422682,-40415.244433,14211.954086,-67876.061123
1713.425240,33309.267390,-7402.059420,-76915.987999
1713.427798,10066.800811,592.164754,-77069.207099
1713.430357,29312.155303,1776.494261,-76762.768900
1713.432915,444.123565,740.205942,-81818.999186
1713.435473,1628.453072,-3552.988522,-72932.291410
1713.438031,-24130.713709,-7402.059420,-83504.409282
1713.440596,4737.318029,-1776.494261,-74004.825107
1713.443160,11399.171507,-6069.688724,-75537.016103
1713.445724,19393.395680,1924.535449,-79061.055394
1713.448289,15544.324782,-9770.718434,-81818.999186
1713.450853,-32569.061448,15692.365970,-64352.021832
1713.453417,25018.960840,-20873.807564,-85343.038477
1713.455982,-30496.484810,9474.636058,-67876.061123
1713.458546,45300.603650,-15988.448347,-83351.190182
1713.461111,-9326.594869,10807.006753,-73391.948708
1713.463675,27979.784608,-17024.736666,-84576.942979
1713.466239,-25463.084405,3404.947333,-72472.634111
1713.468804,-1628.453072,-2368.659014,-79980.369991
1713.471368,-30496.484810,4145.153275,-73238.729609
1713.473932,16728.654289,-1332.370696,-71553.319513
1713.476497,15248.242405,-16136.489536,-87181.667672
1713.479061,-4885.359217,5033.400406,-73545.167808
1713.481626,2960.823768,-16284.530724,-82125.437386
1713.484190,-46929.056723,11991.336260,-73851.606007
1713.486754,3701.029710,-26795.455100,-90858.926063
1713.489319,-44264.315332,16876.695478,-69714.690318
1713.491883,22946.384202,-22946.384202,-90399.268764
1713.494448,-10510.924376,13915.871710,-66956.746525
1713.497012,37750.503042,-16876.695478,-84730.162079
1713.499576,-31236.690752,14952.160028,-67876.061123
1713.502141,4145.153275,0.000000,-71859.757712
1713.504705,-26795.455100,-148.041188,-79214.274493
1713.507269,-9918.759623,1036.288319,-74158.044206
1713.509834,15692.365970,-2072.576638,-81818.999186
1713.512398,25611.125593,-4737.318029,-81972.218286
1713.514963,10362.883188,-5181.441594,-78448.178995
1713.517527,740.205942,444.123565,-77528.864398
1713.520091,-14211.954086,-8734.430116,-76915.987999
1713.522656,-28423.908173,3849.070898,-72779.072310
1713.525220,40711.326810,-16728.654289,-82738.313784
1713.527785,10807.006753,15988.448347,-70480.785816
1713.530349,45596.686027,-6365.771101,-78141.740796
1713.532913,-15396.283594,9918.759623,-70787.224015
1713.535478,17764.942608,-11399.171507,-81359.341888
1713.538042,-16876.695478,-148.041188,-73851.606007
1713.540606,24130.713709,-4441.235652,-74311.263306
1713.543176,14952.160028,1924.535449,-78141.740796
1713.545745,36418.132346,2812.782580,-73238.729609
1713.548315,-5921.647536,444.123565,-84423.723880
1713.550884,-9622.677246,-2960.823768,-77528.864398
1713.553454,-15840.407159,-19097.313304,-81052.903688
1713.556023,-17616.901420,6809.894666,-79827.150892
1713.558592,32421.020260,-27831.743419,-88254.201370
1713.561162,-21465.972318,21910.095883,-65884.212828
1713.563731,13323.706956,-18357.107362,-85343.038477
1713.566301,-29164.114115,11547.212695,-68488.937521
1713.568870,-2516.700203,-12879.583391,-82278.656485
1713.571440,-30940.608376,9622.677246,-72625.853210
1713.574009,31088.649564,-15396.283594,-81052.903688
1713.576578,0.000000,1924.535449,-77835.302597
1713.579148,9622.677246,4589.276840,-76456.330700
1713.581717,-29312.155303,-1924.535449,-82738.313784
1713.584287,-10955.047942,-1776.494261,-75077.358804
1713.586856,-20725.766376,-7550.100608,-83964.066581
1713.589426,-15396.283594,2220.617826,-72319.415011
1713.591995,5181.441594,-11251.130318,-79980.369991
1713.594564,740.205942,0.000000,-77988.521696
1713.597134,3849.070898,-13471.748144,-79367.493593
1713.599703,-38490.708984,11695.253884,-74158.044206
1713.602273,8438.347739,-15248.242405,-82431.875585
1713.604842,-43820.191766,6217.729913,-74464.482406
1713.607412,54627.198520,-11251.130318,-77069.207099
1713.609981,11695.253884,10807.006753,-68335.718422
1713.612550,47965.345042,-4885.359217,-77835.302597
1713.615120,1332.370696,12879.583391,-69714.690318
1713.617689,12287.418637,-4441.235652,-76149.892501
1713.620259,-34937.720462,-2072.576638,-79827.150892
1713.622828,14359.995275,1480.411884,-69714.690318
1713.625398,21910.095883,-11695.253884,-81206.122788
1713.627967,6217.729913,6217.729913,-75383.797003
1713.630536,24870.919651,-17616.901420,-90399.268764
1713.633106,-29756.278868,15692.365970,-68642.156621
1713.635675,9030.512492,-28423.908173,-89786.392366
1713.638245,-25759.166782,17024.736666,-69101.813920
1713.640814,39823.079680,-21465.972318,-86722.010374
1713.643384,-2664.741391,14804.118840,-69408.252119
1713.645957,46336.891969,-13027.624579,-83351.190182
1713.648531,-19985.560434,16580.613101,-63892.364533
1713.651104,2516.700203,-2960.823768,-73545.167808
1713.653678,-9030.512492,1628.453072,-78754.617194
1713.656251,11251.130318,1332.370696,-68182.499322
1713.658825,-3849.070898,-1184.329507,-78907.836294
1713.661398,-9770.718434,11251.130318,-62973.049936
1713.663972,-4737.318029,-14063.912898,-85955.914876
1713.666545,-27091.537477,11695.253884,-70787.224015
1713.669119,-8882.471304,-15840.407159,-84576.942979
1713.671692,-21762.054695,3701.029710,-73545.167808
1713.674266,13323.706956,-23834.631332,-89173.515967
1713.676839,-13767.830521,13323.706956,-64658.460031
1713.679413,16432.571912,-15248.242405,-84270.504780
1713.681987,-23538.548956,6957.935855,-71706.538613
1713.684560,12731.542202,-4145.153275,-75690.235202
1713.687134,-26647.413912,3849.070898,-75383.797003
1713.689707,22650.301825,-2516.700203,-74311.263306
1713.692281,-6513.812290,-296.082377,-77528.864398
1713.694854,18357.107362,-1332.370696,-73851.606007
1713.697428,-25907.207970,7550.100608,-77682.083497
1713.700001,2368.659014,-3552.988522,-72625.853210
1713.702575,-17024.736666,-18949.272115,-88254.201370
1713.705148,-4441.235652,9474.636058,-75383.797003
1713.707722,33901.432144,-22206.178260,-83351.190182
1713.710295,6365.771101,16728.654289,-64198.802732
1713.712869,45448.644839,-16876.695478,-87488.105872
1713.715443,-30052.361245,23982.672521,-59295.791545
1713.718016,10066.800811,-20133.601622,-86262.353075
1713.720590,-18209.066173,10066.800811,-65271.336430
1713.723163,39378.956114,-18209.066173,-80899.684589
1713.725737,10955.047942,2812.782580,-76609.549800
1713.728310,20873.807564,-7254.018232,-82431.875585
1713.730884,-740.205942,-1628.453072,-77682.083497
1713.733457,-8290.306550,-888.247130,-74617.701505
1713.736031,-3404.947333,-7846.182985,-78601.398095
1713.738604,-148.041188,1480.411884,-76762.768900
1713.741178,13175.665768,-14952.160028,-85649.476676
1713.743751,-3552.988522,4589.276840,-74004.825107
1713.746325,21317.931130,-15692.365970,-80440.027290
1713.748902,-31384.731941,13323.706956,-71400.100414
1713.751479,20281.642811,-19393.395680,-79827.150892
1713.754055,-23834.631332,8438.347739,-74770.920605
1713.756632,27683.702231,-19245.354492,-82891.532884
1713.759209,-23390.507767,10658.965565,-66650.308326
1713.761786,20873.807564,-8290.306550,-82278.656485
1713.764363,-21762.054695,9622.677246,-74004.825107
1713.766940,9622.677246,3552.988522,-71093.662214
1713.769516,-14804.118840,-2368.659014,-81512.560987
1713.772093,5329.482782,2516.700203,-70940.443115
1713.774670,-18357.107362,-2072.576638,-82585.094684
1713.777247,-2516.700203,-3552.988522,-75537.016103
1713.779824,14508.036463,-24870.919651,-89786.392366
1713.782400,-34345.555709,21465.972318,-64505.240932
1713.784977,13619.789333,-25167.002028,-89173.515967
1713.787554,-12879.583391,1184.329507,-73085.510509
1713.790131,17764.942608,-5329.482782,-77682.083497
1713.792708,-22798.343014,-1036.288319,-77375.645298
1713.795285,20133.601622,-2220.617826,-73085.510509
1713.797861,-21169.889941,2072.576638,-81818.999186
1713.800438,-2220.617826,9770.718434,-66956.746525
1713.803015,-5477.523971,-7105.977043,-82278.656485
1713.805592,3849.070898,10658.965565,-67722.842023
1713.808169,34049.473332,-18801.230927,-83810.847481
1713.810746,-18061.024985,16284.530724,-68948.594820
1713.813322,16432.571912,-24426.796086,-91318.583362
1713.815899,-25463.084405,11103.089130,-67263.184724
1713.818476,29016.072926,-18061.024985,-83657.628382
1713.821053,0.000000,8142.265362,-70787.224015
1713.823630,42487.821071,-6957.935855,-77069.207099
1713.826206,-6661.853478,5921.647536,-72625.853210
1713.828783,26943.496289,-6957.935855,-78601.398095
1713.831360,-1924.535449,296.082377,-76915.987999
1713.833937,7105.977043,740.205942,-74158.044206
1713.836514,-1924.535449,-4589.276840,-76762.768900
1713.839091,-6365.771101,1776.494261,-77222.426198
1713.841667,17468.860231,-17912.983796,-83044.751983
1713.844244,-18653.189738,6661.853478,-73545.167808
1713.846821,24722.878463,-17320.819043,-87488.105872
1713.849398,-25167.002028,12731.542202,-70940.443115
1713.851944,8142.265362,-17616.901420,-85036.600278
1713.854491,-34345.555709,14804.118840,-62513.392637
1713.857037,23834.631332,-16136.489536,-81665.780087
1713.859583,-18949.272115,14508.036463,-69561.471218
1713.862129,24130.713709,-1628.453072,-76762.768900
1713.864676,-10214.842000,-2220.617826,-80746.465489
1713.867222,13471.748144,4737.318029,-68948.594820
1713.869768,-22058.137072,-3997.112087,-79673.931792
1713.872315,-8734.430116,740.205942,-70634.004916
1713.874861,-24278.754898,-5773.606348,-85955.914876
1713.877407,3256.906145,-2664.741391,-78907.836294
1713.879954,17468.860231,-19245.354492,-85955.914876
1713.882500,-27831.743419,16432.571912,-70021.128517
1713.885046,16580.613101,-24130.713709,-85189.819378
1713.887593,-43672.150578,13323.706956,-65730.993728
1713.890139,28868.031738,-19689.478057,-84883.381178
1713.892685,-15988.448347,8586.388927,-68948.594820
1713.895231,23686.590144,-1332.370696,-78294.959896
1713.897778,-7105.977043,8586.388927,-71706.538613
1713.900324,50334.004056,-18357.107362,-81972.218286
1713.902870,-15248.242405,8586.388927,-73391.948708
1713.905417,2812.782580,-8438.347739,-79367.493593
1713.907963,-9030.512492,-12879.583391,-85802.695776
1713.910509,-10214.842000,1184.329507,-81052.903688
1713.913056,20133.601622,-18505.148550,-82891.532884
1713.915602,-4589.276840,10214.842000,-72012.976812
1713.918148,20281.642811,-15396.283594,-84117.285680
1713.920695,-26943.496289,10658.965565,-69714.690318
1713.923241,29460.196492,-26499.372724,-87028.448573
1713.925787,-15396.283594,13915.871710,-69867.909418
1713.928334,42635.862259,-19689.478057,-85955.914876
1713.930880,-6365.771101,3552.988522,-80440.027290
1713.933426,13175.665768,3701.029710,-70787.224015
1713.935972,-5033.400406,-5921.647536,-81665.780087
1713.938519,10214.842000,-444.123565,-73851.606007
1713.941065,-2220.617826,-444.123565,-81359.341888
1713.943611,18505.148550,-888.247130,-75843.454302
1713.946158,-10807.006753,1480.411884,-78294.959896
1713.948704,-23538.548956,4293.194464,-63279.488135
1713.951250,-10955.047942,-14804.118840,-84423.723880
1713.953804,-32421.020260,25759.166782,-64198.802732
1713.956359,25315.043216,-17172.777854,-82891.532884
1713.958913,-7994.224174,13175.665768,-67109.965625
1713.961468,40563.285622,-14656.077652,-83351.190182
1713.964022,-29608.237680,13323.706956,-68335.718422
1713.966577,13175.665768,-14952.160028,-84576.942979
1713.969131,-33605.349767,6365.771101,-68182.499322
1713.971686,20873.807564,-8734.430116,-79214.274493
1713.974240,-8290.306550,2072.576638,-75537.016103
1713.976795,24426.796086,2516.700203,-70327.566716
1713.979349,-16876.695478,-13027.624579,-84730.162079
1713.981904,-35529.885216,7254.018232,-74004.825107
1713.984458,-2812.782580,-24574.837274,-85649.476676
1713.987013,-32421.020260,9326.594869,-77682.083497
1713.989567,30940.608376,-17024.736666,-82585.094684
1713.992122,-21021.848753,21614.013506,-63432.707234
1713.994676,67950.905476,-31384.731941,-93310.431656
1713.997231,-24574.837274,25018.960840,-61440.858940
1713.999785,25907.207970,-26647.413912,-91931.459760
1714.002340,-33013.185013,15248.242405,-64505.240932
1714.004894,19393.395680,-1924.535449,-72012.976812
1714.007449,7254.018232,-5921.647536,-80440.027290
1714.010003,29164.114115,0.000000,-74311.263306
1714.012558,2368.659014,3256.906145,-76609.549800
1714.015112,-148.041188,-2072.576638,-77528.864398
1714.017667,-11399.171507,-11547.212695,-80440.027290
1714.020221,-592.164754,-740.205942,-74924.139704
1714.022776,13619.789333,-11103.089130,-80746.465489
1714.025330,-444.123565,7105.977043,-73851.606007
1714.027885,17320.819043,-14359.995275,-84117.285680
1714.030439,-9622.677246,9030.512492,-65730.993728
1714.032993,17468.860231,-6365.771101,-76762.768900
1714.035548,-2664.741391,9918.759623,-67722.842023
1714.038102,-296.082377,-3404.947333,-79367.493593
1714.040657,-5773.606348,-8142.265362,-83197.971083
1714.043211,10658.965565,4441.235652,-67416.403824
1714.045766,-17468.860231,-3552.988522,-81972.218286
1714.048320,-1184.329507,7846.182985,-70174.347617
1714.050875,-23242.466579,3701.029710,-75537.016103
1714.053429,8142.265362,-6069.688724,-75843.454302
1714.055990,23982.672521,-23982.672521,-87028.448573
1714.058550,-29608.237680,18357.107362,-68335.718422
1714.061111,17764.942608,-21762.054695,-87334.886772
1714.063671,-38194.626607,17172.777854,-66803.527426
1714.066232,9622.677246,-16136.489536,-83810.847481
1714.068792,-21021.848753,10510.924376,-69408.252119
1714.071353,28127.825796,-15988.448347,-81359.341888
1714.073913,-20133.601622,7846.182985,-72779.072310
1714.076474,24278.754898,-8882.471304,-80746.465489
1714.079034,-17320.819043,6069.688724,-69101.813920
1714.081595,-22798.343014,2664.741391,-77835.302597
1714.084155,2072.576638,-5921.647536,-81359.341888
1714.086716,7698.141797,-6513.812290,-82891.532884
1714.089276,22354.219448,-14063.912898,-79673.931792
1714.091837,6069.688724,5921.647536,-73391.948708
1714.094397,12879.583391,-12731.542202,-80746.465489
1714.096958,-39082.873738,15100.201217,-72779.072310
1714.099518,16580.613101,-22502.260637,-84730.162079
1714.102079,-15840.407159,14211.954086,-68335.718422
1714.104639,50482.045244,-22502.260637,-84270.504780
1714.107200,2072.576638,1776.494261,-77835.302597
1714.109760,29016.072926,-1776.494261,-76762.768900
1714.112321,-11843.295072,148.041188,-78907.836294
1714.114881,21169.889941,5033.400406,-67876.061123
1714.117441,-13323.706956,-740.205942,-78754.617194
1714.120002,4293.194464,-2220.617826,-76609.549800
1714.122562,6809.894666,-8438.347739,-84883.381178
1714.125123,12583.501014,-4885.359217,-74617.701505
1714.127683,7550.100608,-4885.359217,-79980.369991
1714.130244,-6217.729913,8290.306550,-72012.976812
1714.132804,19689.478057,-22354.219448,-86262.353075
