#time,accel_x,accel_y,accel_z
113.981805,1628.453072,-2516.700203,-77682.083497
113.984361,740.205942,-2664.741391,-77528.864398
113.986917,1184.329507,-2220.617826,-76149.892501
113.989473,2368.659014,-1776.494261,-76609.549800
113.992028,1332.370696,-2072.576638,-76149.892501
113.994584,1628.453072,-2812.782580,-77069.207099
113.997140,1332.370696,-2812.782580,-77222.426198
113.999696,1924.535449,-1628.453072,-76303.111601
114.002252,1036.288319,-3108.864956,-77222.426198
114.004807,1332.370696,-2220.617826,-77682.083497
114.007363,3108.864956,-2516.700203,-77375.645298
114.009919,888.247130,-2220.617826,-76762.768900
114.012475,1480.411884,-2072.576638,-76762.768900
114.015030,-148.041188,-3108.864956,-78601.398095
114.017586,8290.306550,-5033.400406,-77375.645298
114.020142,9770.718434,-3256.906145,-78754.617194
114.022698,740.205942,-1924.535449,-77528.864398
114.025250,5329.482782,-5773.606348,-78601.398095
114.027802,1776.494261,-296.082377,-77069.207099
114.030355,4737.318029,1480.411884,-76609.549800
114.032907,4885.359217,-2960.823768,-75843.454302
114.035459,2368.659014,-5477.523971,-75537.016103
114.038011,7550.100608,-8586.388927,-76303.111601
114.040564,12583.501014,3552.988522,-75077.358804
114.043116,-9474.636058,3552.988522,-76303.111601
114.045668,13027.624579,-6809.894666,-77988.521696
114.048221,-3404.947333,-1332.370696,-77375.645298
114.050773,-5329.482782,148.041188,-77988.521696
114.053325,1332.370696,-3552.988522,-76456.330700
114.055878,-9326.594869,-18357.107362,-81512.560987
114.058430,7254.018232,0.000000,-79214.274493
114.060982,-3108.864956,11991.336260,-72472.634111
114.063534,-5033.400406,-10658.965565,-79673.931792
114.066087,-888.247130,-4885.359217,-74464.482406
114.068639,0.000000,-888.247130,-77528.864398
114.071191,2812.782580,-2812.782580,-76303.111601
114.073744,-296.082377,-888.247130,-76303.111601
114.076296,-3108.864956,-148.041188,-77222.426198
114.078848,-4589.276840,-5477.523971,-79367.493593
114.081400,-4145.153275,-148.041188,-73698.386908
114.083953,740.205942,-5329.482782,-78141.740796
114.086505,-6365.771101,-4737.318029,-78448.178995
114.089057,296.082377,-7105.977043,-80133.589091
114.091610,1332.370696,-2516.700203,-75537.016103
114.094162,-5921.647536,-4885.359217,-76149.892501
114.096714,0.000000,444.123565,-75690.235202
114.099266,1776.494261,-1628.453072,-76609.549800
114.101819,-444.123565,-2220.617826,-77375.645298
114.104371,-4737.318029,-3701.029710,-75537.016103
114.106923,-888.247130,-4737.318029,-76915.987999
114.109476,-11991.336260,2368.659014,-76149.892501
114.112028,18209.066173,-3849.070898,-78754.617194
114.114580,-11843.295072,-3849.070898,-74004.825107
114.117133,5181.441594,-7698.141797,-77222.426198
114.119685,6513.812290,2516.700203,-74464.482406
114.122237,-16136.489536,2220.617826,-76762.768900
114.124789,7402.059420,-4293.194464,-80133.589091
114.127341,-1036.288319,-16136.489536,-79980.369991
114.129893,-5921.647536,592.164754,-78141.740796
114.132445,9030.512492,-7994.224174,-76149.892501
114.134997,15100.201217,-888.247130,-72932.291410
114.137548,2960.823768,9622.677246,-75077.358804
114.140100,-8734.430116,-7550.100608,-75996.673402
114.142652,25907.207970,-6513.812290,-81972.218286
114.145204,-5181.441594,-1628.453072,-74158.044206
114.147756,2072.576638,-11843.295072,-81206.122788
114.150307,9918.759623,14211.954086,-72779.072310
114.152859,6513.812290,-10807.006753,-82738.313784
114.155411,-4293.194464,-12583.501014,-79214.274493
114.157963,5477.523971,3552.988522,-75230.577904
114.160514,12435.459826,-888.247130,-77835.302597
114.163066,1480.411884,-5921.647536,-79367.493593
114.165618,4145.153275,2664.741391,-74158.044206
114.168170,4441.235652,-7105.977043,-76303.111601
114.170722,-3256.906145,-3256.906145,-76303.111601
114.173273,5625.565159,2072.576638,-74924.139704
114.175825,6217.729913,-740.205942,-77222.426198
114.178377,2368.659014,-1036.288319,-77069.207099
114.180929,4293.194464,-4737.318029,-77835.302597
114.183481,4885.359217,-3849.070898,-76609.549800
114.186032,-2812.782580,-3108.864956,-80286.808190
114.188584,9622.677246,-2960.823768,-77528.864398
114.191136,10510.924376,-888.247130,-74770.920605
114.193688,296.082377,-2960.823768,-78601.398095
114.196240,4885.359217,-2072.576638,-76303.111601
114.198791,8882.471304,-5033.400406,-76303.111601
114.201343,3701.029710,-3108.864956,-75690.235202
114.203895,3849.070898,-1184.329507,-79214.274493
114.206447,11103.089130,5181.441594,-73698.386908
114.208999,-2516.700203,-4737.318029,-78141.740796
114.211550,5329.482782,-12287.418637,-77528.864398
114.214102,5625.565159,740.205942,-76915.987999
114.216654,-7994.224174,-4589.276840,-79520.712692
114.219206,16432.571912,-2516.700203,-75383.797003
114.221757,15840.407159,7402.059420,-76762.768900
114.224309,3108.864956,-13619.789333,-79061.055394
114.226861,-11103.089130,-9918.759623,-82431.875585
114.229409,20725.766376,-2516.700203,-79520.712692
114.231957,-23242.466579,-8438.347739,-80746.465489
114.234505,2516.700203,1924.535449,-79827.150892
114.237053,18949.272115,-1480.411884,-72319.415011
114.239601,-26943.496289,-4885.359217,-76609.549800
114.242149,-10362.883188,1332.370696,-72625.853210
114.244698,16728.654289,-9474.636058,-80746.465489
114.247246,148.041188,8586.388927,-72319.415011
114.249794,-5921.647536,-3701.029710,-76762.768900
114.252342,4293.194464,-10807.006753,-76456.330700
114.254890,-11399.171507,-1184.329507,-77682.083497
114.257438,-3849.070898,-1480.411884,-79673.931792
114.259986,3404.947333,148.041188,-78141.740796
114.262534,-5181.441594,-4885.359217,-79214.274493
114.265082,-3108.864956,-7254.018232,-80133.589091
114.267630,7254.018232,-3404.947333,-75537.016103
114.270178,-7105.977043,-888.247130,-75537.016103
114.272726,6365.771101,-5477.523971,-78141.740796
114.275274,-5477.523971,3108.864956,-75537.016103
114.277822,-1480.411884,-4885.359217,-79367.493593
114.280370,148.041188,-3552.988522,-74464.482406
114.282919,-7402.059420,-740.205942,-76915.987999
114.285467,3701.029710,0.000000,-76149.892501
114.288015,0.000000,-2812.782580,-78601.398095
114.290563,-6069.688724,-1184.329507,-74617.701505
114.293111,3404.947333,-5329.482782,-77069.207099
114.295659,2368.659014,-1332.370696,-74464.482406
114.298207,-10066.800811,-4441.235652,-76915.987999
114.300755,3404.947333,-1776.494261,-75383.797003
114.303303,-9918.759623,-148.041188,-78141.740796
114.305851,10214.842000,-8290.306550,-79214.274493
114.308399,-6661.853478,-2812.782580,-75077.358804
114.310947,-6217.729913,5033.400406,-73391.948708
114.313495,10807.006753,-8290.306550,-79520.712692
114.316043,-8882.471304,-2516.700203,-77988.521696
114.318591,-7846.182985,13471.748144,-72472.634111
114.321140,2960.823768,-23094.425390,-81665.780087
114.323688,-5921.647536,6957.935855,-74617.701505
114.326236,740.205942,-9622.677246,-79827.150892
114.328784,23982.672521,-2960.823768,-72166.195912
114.331331,1924.535449,11251.130318,-74464.482406
114.333879,-12287.418637,-2368.659014,-71859.757712
114.336426,9918.759623,-444.123565,-75996.673402
114.338974,13323.706956,3552.988522,-68335.718422
114.341521,-14656.077652,-7402.059420,-79520.712692
114.344069,8438.347739,11843.295072,-73085.510509
114.346616,11399.171507,-7698.141797,-81512.560987
114.349164,-6217.729913,-10658.965565,-79367.493593
114.351711,14359.995275,-2516.700203,-74311.263306
114.354259,4441.235652,-3404.947333,-77682.083497
114.356806,3997.112087,-1184.329507,-77682.083497
114.359354,3849.070898,2516.700203,-76149.892501
114.361902,7105.977043,-4737.318029,-75690.235202
114.364449,-3404.947333,-5921.647536,-76456.330700
114.366997,5921.647536,-148.041188,-76456.330700
114.369544,9178.553681,-2516.700203,-74311.263306
114.372092,-3404.947333,-3701.029710,-79367.493593
114.374639,8882.471304,-2812.782580,-77528.864398
114.377187,3404.947333,-4589.276840,-78907.836294
114.379734,-1480.411884,-1924.535449,-75996.673402
114.382282,11991.336260,-1332.370696,-74158.044206
114.384829,7994.224174,-2960.823768,-79061.055394
114.387377,-5773.606348,-1184.329507,-78141.740796
114.389924,11695.253884,-3256.906145,-74311.263306
114.392472,5921.647536,-2220.617826,-74311.263306
114.395019,4737.318029,-1036.288319,-77375.645298
114.397567,4885.359217,148.041188,-77682.083497
114.400114,3701.029710,-5329.482782,-78601.398095
114.402662,-8438.347739,-5773.606348,-75537.016103
114.405209,11547.212695,-296.082377,-77375.645298
114.407757,1184.329507,5329.482782,-74311.263306
114.410304,-2960.823768,-12879.583391,-81972.218286
114.412852,21169.889941,7994.224174,-71859.757712
114.415399,16136.489536,-4885.359217,-73698.386908
114.417947,-26055.249158,-3701.029710,-79673.931792
114.420494,24870.919651,-5477.523971,-78907.836294
114.423042,-12139.377449,3849.070898,-75843.454302
114.425590,-17764.942608,-10955.047942,-78448.178995
114.428137,-3256.906145,-9918.759623,-78448.178995
114.430685,1184.329507,1036.288319,-79827.150892
114.433230,-9622.677246,-5625.565159,-78448.178995
114.435776,9474.636058,-9474.636058,-79980.369991
114.438322,13027.624579,4293.194464,-73698.386908
114.440868,-14359.995275,-1776.494261,-77222.426198
114.443414,5329.482782,-11991.336260,-74617.701505
114.445960,-7698.141797,1036.288319,-77988.521696
114.448506,-12435.459826,8734.430116,-73698.386908
114.451051,1332.370696,-6217.729913,-79980.369991
114.453597,444.123565,-444.123565,-75230.577904
114.456143,-2812.782580,-5921.647536,-79061.055394
114.458689,3256.906145,-3997.112087,-76609.549800
114.461235,2368.659014,-2220.617826,-73851.606007
114.463781,-2664.741391,148.041188,-77835.302597
114.466327,1036.288319,-1036.288319,-79061.055394
114.468872,-4293.194464,-4441.235652,-77528.864398
114.471418,-3552.988522,-6217.729913,-74770.920605
114.473964,-740.205942,-3256.906145,-77835.302597
114.476510,-4293.194464,-2220.617826,-78754.617194
114.479056,-2072.576638,-5625.565159,-79214.274493
114.481602,444.123565,-2664.741391,-77375.645298
114.484148,-5181.441594,-4737.318029,-75996.673402
114.486693,-2812.782580,-2516.700203,-77222.426198
114.489239,-5773.606348,4145.153275,-76456.330700
114.491785,10955.047942,740.205942,-73698.386908
114.494331,-444.123565,-6365.771101,-74004.825107
114.496877,-5033.400406,-1628.453072,-75383.797003
114.499423,8882.471304,5033.400406,-72472.634111
114.501969,-6365.771101,1924.535449,-74004.825107
114.504514,-2368.659014,-2812.782580,-79061.055394
114.507060,10214.842000,-888.247130,-74158.044206
114.509606,-17024.736666,-5181.441594,-73085.510509
114.512152,21762.054695,0.000000,-73238.729609
114.514698,1332.370696,-148.041188,-73238.729609
114.517244,2812.782580,11251.130318,-75077.358804
114.519790,-14063.912898,-8882.471304,-79214.274493
114.522335,37750.503042,-15248.242405,-87334.886772
114.524881,-17764.942608,-1776.494261,-74311.263306
114.527427,6365.771101,-12435.459826,-85036.600278
114.529973,9770.718434,0.000000,-77988.521696
114.532519,-9918.759623,-3849.070898,-81359.341888
114.535065,13619.789333,-4293.194464,-76762.768900
114.537611,12879.583391,-8586.388927,-75077.358804
114.540157,-6809.894666,-2960.823768,-76915.987999
114.542703,3552.988522,8586.388927,-74617.701505
114.545249,13471.748144,-1480.411884,-78448.178995
114.547795,-1332.370696,-8734.430116,-79061.055394
114.550341,7698.141797,-4145.153275,-75537.016103
114.552887,3997.112087,-4145.153275,-75996.673402
114.555433,2220.617826,-1480.411884,-78448.178995
114.557979,6217.729913,-2664.741391,-76609.549800
114.560525,2960.823768,-2664.741391,-76609.549800
114.563071,5181.441594,-4885.359217,-77682.083497
114.565617,2516.700203,-4441.235652,-78294.959896
114.568163,5181.441594,-1776.494261,-78141.740796
114.570709,5625.565159,-3849.070898,-78907.836294
114.573255,9770.718434,-5477.523971,-77222.426198
114.575801,4885.359217,-2664.741391,-77835.302597
114.578347,7994.224174,3849.070898,-75230.577904
114.580893,-1628.453072,-1480.411884,-75690.235202
114.583439,1184.329507,-6365.771101,-78754.617194
114.585985,7698.141797,-9326.594869,-75230.577904
114.588531,1776.494261,-1924.535449,-78754.617194
114.591077,5477.523971,2072.576638,-73545.167808
114.593623,5477.523971,-9918.759623,-80593.246390
114.596169,3849.070898,3552.988522,-78448.178995
114.598715,17468.860231,-2664.741391,-70787.224015
114.601261,-16284.530724,1628.453072,-75383.797003
114.603807,7846.182985,-6365.771101,-78754.617194
114.606353,4441.235652,12731.542202,-74158.044206
114.608899,-12879.583391,-13175.665768,-78294.959896
114.611445,-23242.466579,-12583.501014,-82278.656485
114.613991,12583.501014,3552.988522,-75077.358804
114.616537,-5033.400406,-6809.894666,-80593.246390
114.619083,-2516.700203,-5033.400406,-78141.740796
114.621629,16284.530724,1776.494261,-74158.044206
114.624175,-15692.365970,-1332.370696,-76149.892501
114.626721,-740.205942,-11843.295072,-76149.892501
114.629267,-1184.329507,5181.441594,-74617.701505
114.631813,-10955.047942,3701.029710,-75996.673402
114.634359,2812.782580,-6661.853478,-79367.493593
114.636907,-3108.864956,-1776.494261,-76915.987999
114.639454,-1776.494261,-888.247130,-75383.797003
114.642001,2960.823768,-4737.318029,-75230.577904
114.644548,-1036.288319,-3108.864956,-76915.987999
114.647095,-148.041188,592.164754,-77069.207099
114.649642,-4293.194464,-1924.535449,-78294.959896
114.652188,-740.205942,-5921.647536,-76762.768900
114.654735,-2072.576638,148.041188,-74770.920605
114.657282,-6661.853478,-592.164754,-76915.987999
114.659829,-3701.029710,-5033.400406,-79367.493593
114.662376,4885.359217,-2812.782580,-75843.454302
114.664923,-8882.471304,-1924.535449,-76303.111601
114.667470,-5033.400406,-1628.453072,-79061.055394
114.670017,2812.782580,3404.947333,-78448.178995
114.672564,-8586.388927,-6661.853478,-78601.398095
114.675111,-888.247130,-12583.501014,-78141.740796
114.677658,2812.782580,3701.029710,-75230.577904
114.680205,2220.617826,-5625.565159,-80593.246390
114.682752,-5181.441594,-7698.141797,-78601.398095
114.685299,-9918.759623,15840.407159,-72779.072310
114.687846,-5033.400406,-17024.736666,-81206.122788
114.690393,4293.194464,-5625.565159,-81665.780087
114.692940,-1332.370696,-3256.906145,-73698.386908
114.695487,21465.972318,-5033.400406,-75996.673402
114.698034,13619.789333,10066.800811,-74004.825107
114.700581,-21021.848753,1776.494261,-68795.375720
114.703128,1480.411884,1628.453072,-74158.044206
114.705675,22502.260637,-3849.070898,-71246.881314
114.708222,-16284.530724,-2664.741391,-77069.207099
114.710769,7698.141797,14359.995275,-71706.538613
114.713316,20725.766376,-7994.224174,-81052.903688
114.715863,-15988.448347,-2072.576638,-75690.235202
114.718410,14508.036463,-9326.594869,-78141.740796
114.720957,7254.018232,-7846.182985,-78601.398095
114.723504,-7550.100608,1332.370696,-79827.150892
114.726050,3997.112087,1332.370696,-77528.864398
114.728597,15840.407159,-8586.388927,-78448.178995
114.731144,-8586.388927,-1628.453072,-76609.549800
114.733691,4737.318029,-5329.482782,-77988.521696
114.736238,4293.194464,-592.164754,-75996.673402
114.738784,-148.041188,-4589.276840,-79980.369991
114.741330,14952.160028,-1332.370696,-76149.892501
114.743876,-3256.906145,-888.247130,-75843.454302
114.746422,0.000000,-3849.070898,-73851.606007
114.748968,6809.894666,-1332.370696,-75230.577904
114.751514,7402.059420,-1332.370696,-76456.330700
114.754060,3849.070898,-1628.453072,-78907.836294
114.756606,6809.894666,1628.453072,-78294.959896
114.759152,2664.741391,-3108.864956,-74311.263306
114.761698,4885.359217,-16284.530724,-80440.027290
114.764244,3701.029710,2812.782580,-75077.358804
114.766790,-1924.535449,-148.041188,-79061.055394
114.769336,14508.036463,-8734.430116,-77835.302597
114.771882,11251.130318,1776.494261,-76762.768900
114.774428,-9474.636058,-9770.718434,-77682.083497
114.776974,13175.665768,-10807.006753,-77528.864398
114.779520,3849.070898,10510.924376,-69408.252119
114.782066,-21465.972318,-10510.924376,-77988.521696
114.784612,27979.784608,7698.141797,-77222.426198
114.787158,-3701.029710,-2960.823768,-71859.757712
114.789704,-29904.320057,-14508.036463,-85802.695776
114.792250,8290.306550,2812.782580,-75690.235202
114.794796,9326.594869,-4293.194464,-78907.836294
114.797342,-18801.230927,1036.288319,-75843.454302
114.799888,7402.059420,-3108.864956,-79214.274493
114.802434,-5329.482782,1036.288319,-75383.797003
114.804980,-11251.130318,-16284.530724,-80133.589091
114.807526,8290.306550,-888.247130,-76303.111601
114.810072,-11103.089130,10658.965565,-71246.881314
114.812618,-3256.906145,-7105.977043,-78601.398095
114.815164,6365.771101,-7846.182985,-80746.465489
114.817710,1924.535449,2072.576638,-74924.139704
114.820256,-2072.576638,-5033.400406,-75537.016103
114.822802,3701.029710,-3701.029710,-74464.482406
114.825348,-1924.535449,-740.205942,-76456.330700
114.827894,-888.247130,-1924.535449,-78754.617194
114.830440,0.000000,-1776.494261,-76303.111601
114.832986,-8734.430116,-2960.823768,-76149.892501
114.835532,-2368.659014,-2368.659014,-75537.016103
114.838078,3997.112087,-2812.782580,-77222.426198
114.840624,-3108.864956,-1184.329507,-75996.673402
114.843170,-10955.047942,1184.329507,-79214.274493
114.845716,10955.047942,-1628.453072,-76762.768900
114.848262,-2812.782580,-4589.276840,-75996.673402
114.850808,-10066.800811,-6809.894666,-74004.825107
114.853355,4441.235652,5033.400406,-73851.606007
114.855901,-2368.659014,-2960.823768,-77528.864398
114.858447,-3849.070898,-12435.459826,-83964.066581
114.860993,4589.276840,4441.235652,-73851.606007
114.863539,-19541.436869,-7698.141797,-75077.358804
114.866085,19097.313304,-296.082377,-78754.617194
114.868631,-9474.636058,-3108.864956,-75537.016103
114.871177,6069.688724,-3108.864956,-85036.600278
114.873723,15100.201217,-7402.059420,-78141.740796
114.876269,1184.329507,-4145.153275,-75996.673402
114.878815,-6661.853478,2516.700203,-72932.291410
114.881361,29312.155303,-5181.441594,-83964.066581
114.883907,-1924.535449,-1184.329507,-77222.426198
114.886453,-13767.830521,3256.906145,-77375.645298
114.888999,24870.919651,-4145.153275,-76915.987999
114.891545,8586.388927,-6365.771101,-74924.139704
114.894091,-5181.441594,740.205942,-72472.634111
114.896637,10658.965565,-5625.565159,-76762.768900
114.899183,2368.659014,1924.535449,-78754.617194
114.901729,-3108.864956,-1628.453072,-79367.493593
114.904275,18061.024985,-7698.141797,-77375.645298
114.906821,4589.276840,-3256.906145,-76762.768900
114.909367,-3256.906145,-3552.988522,-78141.740796
114.911913,2812.782580,-1628.453072,-76762.768900
114.914459,14656.077652,-3997.112087,-76762.768900
114.917005,-2516.700203,2220.617826,-74924.139704
114.919551,9770.718434,-9178.553681,-79827.150892
114.922097,6513.812290,2664.741391,-72625.853210
114.924643,296.082377,-4885.359217,-79061.055394
114.927190,11399.171507,1924.535449,-76762.768900
114.929736,11399.171507,-3404.947333,-78141.740796
114.932282,-2368.659014,-4737.318029,-74617.701505
114.934828,6069.688724,-9918.759623,-75843.454302
114.937374,15840.407159,5921.647536,-74311.263306
114.939920,-13323.706956,4737.318029,-73851.606007
114.942466,16432.571912,-13915.871710,-79520.712692
114.945012,17764.942608,13027.624579,-71093.662214
114.947558,-4293.194464,-11991.336260,-78601.398095
114.950104,-6217.729913,-11399.171507,-79367.493593
114.952650,28719.990550,-5477.523971,-79827.150892
114.955196,-17616.901420,6513.812290,-77682.083497
114.957742,-11547.212695,-11251.130318,-79980.369991
114.960288,14508.036463,-4737.318029,-74004.825107
114.962834,-24574.837274,2368.659014,-75843.454302
114.965380,-5773.606348,-740.205942,-75230.577904
114.967926,18801.230927,-8142.265362,-83044.751983
114.970472,-9622.677246,6957.935855,-74311.263306
114.973018,-3256.906145,-8882.471304,-79827.150892
114.975564,11103.089130,-14211.954086,-79061.055394
114.978110,-9918.759623,-5181.441594,-76762.768900
114.980656,-6365.771101,-3552.988522,-80286.808190
114.983203,9326.594869,3108.864956,-76303.111601
114.985749,-2516.700203,-4737.318029,-80286.808190
114.988295,-7846.182985,-3552.988522,-77528.864398
114.990841,4293.194464,-2664.741391,-74924.139704
114.993387,6513.812290,-3701.029710,-74464.482406
114.995933,-11991.336260,-592.164754,-76456.330700
114.998479,1332.370696,-3701.029710,-78601.398095
115.001025,1924.535449,-3404.947333,-76915.987999
115.003571,-4145.153275,-3404.947333,-75537.016103
115.006117,-11695.253884,-1924.535449,-76762.768900
115.008663,6365.771101,-4441.235652,-78294.959896
115.011209,-6957.935855,2072.576638,-77069.207099
115.013755,2220.617826,5181.441594,-75077.358804
115.016301,444.123565,-3404.947333,-76456.330700
115.018847,-8734.430116,-15100.201217,-79061.055394
115.021393,148.041188,148.041188,-76915.987999
115.023870,8290.306550,-2664.741391,-76303.111601
115.026348,-13915.871710,-7105.977043,-80440.027290
115.028825,-5921.647536,13027.624579,-74617.701505
115.031302,2072.576638,-17616.901420,-81665.780087
115.033779,-7105.977043,-2516.700203,-78601.398095
115.036256,4737.318029,-3552.988522,-74617.701505
115.038733,19689.478057,-1924.535449,-75537.016103
115.041210,7105.977043,6069.688724,-76609.549800
115.043688,-11251.130318,-2516.700203,-73545.167808
115.046165,10807.006753,-2072.576638,-74617.701505
115.048642,14804.118840,-3552.988522,-74004.825107
115.051119,-12879.583391,-1924.535449,-77375.645298
115.053596,15396.283594,8734.430116,-72625.853210
115.056073,6957.935855,-4885.359217,-80593.246390
115.058551,-10362.883188,-5033.400406,-78448.178995
115.061028,18061.024985,-11399.171507,-76149.892501
115.063505,1184.329507,-8734.430116,-80286.808190
115.065982,-1480.411884,3256.906145,-75996.673402
115.068459,10955.047942,1924.535449,-77528.864398
115.070936,10214.842000,-3701.029710,-75230.577904
115.073413,-2072.576638,-6661.853478,-77528.864398
115.075891,8586.388927,-592.164754,-73851.606007
115.078368,1480.411884,888.247130,-74617.701505
115.080845,3108.864956,-4885.359217,-79827.150892
115.083322,13471.748144,-2072.576638,-76149.892501
115.085799,3701.029710,148.041188,-74004.825107
115.088276,6513.812290,-5625.565159,-78601.398095
115.090754,8438.347739,-740.205942,-76303.111601
115.093231,-1184.329507,1776.494261,-75996.673402
115.095708,5625.565159,-7846.182985,-79673.931792
115.098185,13471.748144,-9770.718434,-76456.330700
115.100662,888.247130,1628.453072,-75843.454302
115.103139,-2072.576638,-1776.494261,-78141.740796
115.105617,12139.377449,-2516.700203,-77528.864398
115.108094,-444.123565,-2664.741391,-79827.150892
115.110571,1924.535449,-4589.276840,-79827.150892
115.113048,8734.430116,-12879.583391,-77222.426198
115.115525,6661.853478,7846.182985,-73238.729609
115.118002,-18061.024985,-4145.153275,-77375.645298
115.120479,20725.766376,7254.018232,-76915.987999
115.122976,-4441.235652,-4737.318029,-71400.100414
115.125472,-27831.743419,-14656.077652,-83197.971083
115.127969,15248.242405,1924.535449,-75537.016103
115.130465,888.247130,-3108.864956,-78448.178995
115.132962,-12287.418637,-5625.565159,-78141.740796
115.135458,2220.617826,-2812.782580,-79827.150892
115.137955,740.205942,-1480.411884,-75996.673402
115.140451,-9326.594869,-9770.718434,-73391.948708
115.142948,1628.453072,-9474.636058,-76303.111601
115.145444,888.247130,7698.141797,-72932.291410
115.147941,-8734.430116,1924.535449,-77682.083497
115.150437,1628.453072,-4441.235652,-80286.808190
115.152934,-888.247130,1036.288319,-73545.167808
115.155430,-148.041188,-8142.265362,-78294.959896
115.157927,4145.153275,-3997.112087,-76762.768900
115.160423,-5921.647536,-1480.411884,-78141.740796
115.162920,740.205942,-2220.617826,-77988.521696
115.165416,-3108.864956,-1924.535449,-75383.797003
115.167913,-6365.771101,-1924.535449,-74464.482406
115.170409,1184.329507,-2960.823768,-77528.864398
115.172906,-10807.006753,2072.576638,-78294.959896
115.175402,3108.864956,-3108.864956,-76762.768900
115.177899,5921.647536,-5329.482782,-76303.111601
115.180395,-16876.695478,-5773.606348,-72472.634111
115.182892,-7105.977043,3997.112087,-75537.016103
115.185388,8586.388927,-1184.329507,-76609.549800
115.187884,-12879.583391,-6957.935855,-80133.589091
115.190381,-8438.347739,9474.636058,-75230.577904
115.192877,-2368.659014,-18209.066173,-80440.027290
115.195374,6069.688724,-3849.070898,-83964.066581
115.197870,-7550.100608,-3701.029710,-76149.892501
115.200367,21614.013506,-1924.535449,-79980.369991
115.202863,11843.295072,-148.041188,-74770.920605
115.205360,-3108.864956,-8290.306550,-76456.330700
115.207856,-2960.823768,3552.988522,-70480.785816
115.210353,30052.361245,-5181.441594,-73085.510509
115.212849,-18061.024985,-1924.535449,-77222.426198
115.215346,-2072.576638,13175.665768,-70940.443115
115.217842,29460.196492,-4737.318029,-81206.122788
115.220339,-19985.560434,-296.082377,-74311.263306
115.222851,15248.242405,-11991.336260,-80593.246390
115.225363,16432.571912,-9178.553681,-77835.302597
115.227875,-2516.700203,740.205942,-78601.398095
115.230387,-148.041188,4293.194464,-77528.864398
115.232900,15248.242405,-4293.194464,-77375.645298
115.235412,888.247130,-6217.729913,-77222.426198
115.237924,-888.247130,-2072.576638,-77682.083497
115.240436,2960.823768,-1036.288319,-78141.740796
115.242948,6069.688724,-6661.853478,-77682.083497
115.245460,13619.789333,-444.123565,-75690.235202
115.247973,13915.871710,1924.535449,-74158.044206
115.250485,-1332.370696,-1628.453072,-79214.274493
115.252997,444.123565,-2960.823768,-78601.398095
115.255509,10807.006753,-9474.636058,-77835.302597
115.258021,3997.112087,-11991.336260,-77375.645298
115.260533,13175.665768,6661.853478,-74617.701505
115.263046,-8734.430116,3701.029710,-74924.139704
115.265558,12731.542202,-7994.224174,-76456.330700
115.268070,7254.018232,2812.782580,-77835.302597
115.270582,-5329.482782,-5329.482782,-76609.549800
115.273094,-4441.235652,-15248.242405,-77375.645298
115.275606,18653.189738,3108.864956,-76762.768900
115.278118,-31532.773129,-148.041188,-77682.083497
115.280631,18949.272115,444.123565,-82891.532884
115.283143,7254.018232,444.123565,-68795.375720
115.285655,-40859.367998,-13767.830521,-85649.476676
115.288167,20133.601622,1628.453072,-76915.987999
115.290679,1924.535449,-1480.411884,-78754.617194
115.293191,-27831.743419,3552.988522,-76303.111601
115.295704,9770.718434,-6217.729913,-81665.780087
115.298216,1924.535449,-888.247130,-76762.768900
115.300728,-15396.283594,-7402.059420,-75690.235202
115.303240,3108.864956,-10510.924376,-75230.577904
115.305752,2516.700203,6661.853478,-74004.825107
115.308264,-12879.583391,1628.453072,-78141.740796
115.310777,5477.523971,-6069.688724,-81359.341888
115.313289,2072.576638,-296.082377,-74617.701505
115.315801,-1036.288319,-3108.864956,-75690.235202
115.318313,-4441.235652,-3404.947333,-74617.701505
115.320825,-1924.535449,-2220.617826,-80593.246390
115.323349,-6957.935855,-444.123565,-78448.178995
115.325872,-3108.864956,-1184.329507,-76915.987999
115.328396,2072.576638,-1924.535449,-77222.426198
115.330919,-10066.800811,-148.041188,-76303.111601
115.333443,4737.318029,-9770.718434,-80593.246390
115.335966,296.082377,-3552.988522,-76609.549800
115.338490,-5477.523971,-3404.947333,-74617.701505
115.341013,-6957.935855,7994.224174,-73085.510509
115.343537,13175.665768,-4589.276840,-78601.398095
115.346060,-15100.201217,-5181.441594,-76915.987999
115.348584,-11991.336260,8882.471304,-76303.111601
115.351107,-1184.329507,-19097.313304,-80899.684589
115.353631,6957.935855,-7402.059420,-85343.038477
115.356154,-11843.295072,-5625.565159,-75843.454302
115.358678,33013.185013,-3997.112087,-78601.398095
115.361201,23834.631332,-2516.700203,-74464.482406
115.363725,-16876.695478,-2368.659014,-72625.853210
115.366248,6809.894666,3256.906145,-70634.004916
115.368772,28868.031738,-6809.894666,-74770.920605
115.371295,-19245.354492,0.000000,-73698.386908
115.373819,9178.553681,10955.047942,-73851.606007
115.376342,18801.230927,-4589.276840,-79520.712692
115.378866,-19985.560434,-5773.606348,-79061.055394
115.381389,21762.054695,-13175.665768,-80440.027290
115.383913,7698.141797,-9178.553681,-78294.959896
115.386436,-4293.194464,-148.041188,-79214.274493
115.388959,5921.647536,3701.029710,-75996.673402
115.391483,11251.130318,-5477.523971,-77528.864398
115.394006,-2812.782580,-4589.276840,-77069.207099
115.396530,-4441.235652,-2368.659014,-77682.083497
115.399053,8290.306550,-592.164754,-78754.617194
115.401577,11547.212695,-5181.441594,-79827.150892
115.404100,7550.100608,1184.329507,-73085.510509
115.406624,6809.894666,-2072.576638,-78294.959896
115.409147,3404.947333,-4589.276840,-76915.987999
115.411671,-5625.565159,-7698.141797,-76609.549800
115.414194,13027.624579,-7698.141797,-75537.016103
115.416718,14211.954086,3997.112087,-75690.235202
115.419241,-10807.006753,7105.977043,-74158.044206
115.421765,16728.654289,-7105.977043,-77835.302597
115.424298,6069.688724,3701.029710,-75996.673402
115.426831,-13027.624579,-6217.729913,-78907.836294
115.429365,-8290.306550,-13471.748144,-76915.987999
115.431898,22650.301825,1776.494261,-79980.369991
115.434431,-37158.338288,1036.288319,-75077.358804
115.436965,22206.178260,-1628.453072,-84730.162079
115.439498,5477.523971,888.247130,-69408.252119
115.442031,-39378.956114,-14656.077652,-84883.381178
115.444565,19985.560434,2516.700203,-75996.673402
115.447098,-888.247130,-1924.535449,-78754.617194
115.449631,-21465.972318,-6069.688724,-75383.797003
115.452164,9622.677246,-6069.688724,-83810.847481
115.454698,-1628.453072,1332.370696,-77528.864398
115.457231,-15396.283594,-11251.130318,-78907.836294
115.459764,3701.029710,-3849.070898,-72472.634111
115.462298,2072.576638,5329.482782,-73391.948708
115.464831,-10362.883188,-2368.659014,-79673.931792
115.467364,4145.153275,-888.247130,-79214.274493
115.469898,2664.741391,-148.041188,-75230.577904
115.472431,-1332.370696,-5477.523971,-78448.178995
115.474964,-11251.130318,-2516.700203,-77988.521696
115.477497,-1480.411884,-1036.288319,-75383.797003
115.480031,-5477.523971,-3404.947333,-77988.521696
115.482564,-7550.100608,444.123565,-77988.521696
115.485097,4589.276840,2072.576638,-74924.139704
115.487631,888.247130,-5033.400406,-78141.740796
115.490164,-4737.318029,-6957.935855,-77988.521696
115.492697,-4145.153275,-6661.853478,-75383.797003
115.495231,-7550.100608,148.041188,-76915.987999
115.497764,4293.194464,-2960.823768,-78907.836294
115.500297,-6365.771101,-7105.977043,-79980.369991
115.502830,-12583.501014,8734.430116,-76762.768900
115.505364,3849.070898,-17024.736666,-80746.465489
115.507897,-1184.329507,-8142.265362,-78907.836294
115.510430,4885.359217,-1776.494261,-72932.291410
115.512964,22946.384202,-148.041188,-71706.538613
115.515497,8586.388927,12583.501014,-73545.167808
115.518030,-23538.548956,1480.411884,-74770.920605
115.520564,40415.244433,-444.123565,-73851.606007
115.523097,22206.178260,-6957.935855,-76303.111601
115.525637,-17468.860231,2220.617826,-71706.538613
115.528176,20429.683999,-592.164754,-77069.207099
115.530716,-148.041188,-4589.276840,-83351.190182
115.533256,-13175.665768,-5921.647536,-79980.369991
115.535795,31976.896694,-13323.706956,-77375.645298
115.538335,-3552.988522,-1776.494261,-72012.976812
115.540875,-1036.288319,-1480.411884,-77222.426198
115.543414,11547.212695,-888.247130,-76609.549800
115.545954,13027.624579,-2220.617826,-76149.892501
115.548494,-3404.947333,1776.494261,-74464.482406
115.551033,-1480.411884,-3997.112087,-78294.959896
115.553573,6957.935855,-3849.070898,-78448.178995
115.556113,12287.418637,-2368.659014,-76915.987999
115.558652,6957.935855,2220.617826,-74924.139704
115.561192,5181.441594,-5477.523971,-79980.369991
115.563732,2516.700203,-2960.823768,-77222.426198
115.566272,1184.329507,-7254.018232,-77375.645298
115.568811,8290.306550,-4145.153275,-76915.987999
115.571351,5181.441594,3997.112087,-74924.139704
115.573891,3552.988522,1480.411884,-75690.235202
115.576430,7402.059420,-10510.924376,-77988.521696
115.578970,16580.613101,8882.471304,-73085.510509
115.581510,2368.659014,-8734.430116,-74924.139704
115.584049,-9918.759623,-14508.036463,-80133.589091
115.586589,13175.665768,3552.988522,-80133.589091
115.589129,-20281.642811,7105.977043,-76915.987999
115.591668,-4441.235652,-11251.130318,-78907.836294
115.594208,10510.924376,-4885.359217,-73851.606007
115.596748,-20577.725188,1332.370696,-79214.274493
115.599287,-9178.553681,-3108.864956,-77222.426198
115.601827,14211.954086,-6661.853478,-79673.931792
115.604367,-8586.388927,3849.070898,-71706.538613
115.606906,-1332.370696,-4589.276840,-81665.780087
115.609446,1776.494261,-148.041188,-79061.055394
115.611986,-4737.318029,-7402.059420,-75996.673402
115.614526,-5773.606348,-10807.006753,-78294.959896
115.617065,5477.523971,2072.576638,-74004.825107
115.619605,0.000000,6069.688724,-73698.386908
115.622145,-4441.235652,-296.082377,-78754.617194
115.624684,2960.823768,-148.041188,-75077.358804
115.627231,1184.329507,-3849.070898,-76149.892501
115.629777,-2960.823768,-5773.606348,-76456.330700
115.632322,-7550.100608,-1184.329507,-75230.577904
115.634868,-8734.430116,3256.906145,-76609.549800
115.637413,5477.523971,-1036.288319,-79367.493593
115.639959,-3108.864956,-4589.276840,-76609.549800
115.642504,-444.123565,-9030.512492,-77528.864398
115.645050,-11399.171507,-5033.400406,-75230.577904
115.647595,-6365.771101,3849.070898,-77069.207099
115.650141,11251.130318,-592.164754,-76303.111601
115.652686,-9770.718434,-5329.482782,-77988.521696
115.655231,-10807.006753,8438.347739,-74311.263306
115.657777,444.123565,-16580.613101,-81359.341888
115.660322,3256.906145,-8586.388927,-82431.875585
115.662868,-7698.141797,-4145.153275,-75383.797003
115.665413,27387.619854,-592.164754,-76609.549800
115.667959,10807.006753,10362.883188,-72472.634111
115.670504,-23094.425390,-888.247130,-73698.386908
115.673050,42635.862259,-17024.736666,-85496.257577
115.675595,-6513.812290,-444.123565,-72779.072310
115.678141,-5625.565159,-6365.771101,-83351.190182
115.680686,20429.683999,2072.576638,-76303.111601
115.683232,7254.018232,-3404.947333,-79980.369991
115.685777,-19837.519246,-5477.523971,-78601.398095
115.688323,35381.844028,-13323.706956,-77835.302597
115.690868,-2664.741391,-3701.029710,-73545.167808
115.693414,-4145.153275,0.000000,-77528.864398
115.695959,11251.130318,-444.123565,-75383.797003
115.698505,0.000000,-4441.235652,-79367.493593
115.701050,2072.576638,1776.494261,-74464.482406
115.703595,8734.430116,-5921.647536,-78448.178995
115.706141,5329.482782,-4293.194464,-79214.274493
115.708686,7550.100608,2664.741391,-77222.426198
115.711232,8142.265362,-1924.535449,-74464.482406
115.713777,-888.247130,-4589.276840,-76456.330700
115.716323,12583.501014,-3256.906145,-75537.016103
115.718868,-296.082377,-6661.853478,-78601.398095
115.721414,10066.800811,1924.535449,-77222.426198
115.723959,-4145.153275,3701.029710,-72932.291410
115.726505,11399.171507,-12731.542202,-78907.836294
115.729055,15988.448347,7254.018232,-73085.510509
115.731606,-8882.471304,-3701.029710,-76762.768900
115.734157,5773.606348,-14952.160028,-77222.426198
115.736707,10362.883188,10510.924376,-75077.358804
115.739258,-19541.436869,-3701.029710,-76915.987999
115.741809,16136.489536,2516.700203,-77069.207099
115.744359,-4589.276840,-3849.070898,-73545.167808
115.746910,-27683.702231,-14804.118840,-84117.285680
115.749461,2516.700203,592.164754,-75077.358804
115.752011,11991.336260,-888.247130,-75230.577904
115.754562,-24870.919651,-2516.700203,-76609.549800
115.757113,14804.118840,-2072.576638,-79061.055394
115.759664,-8586.388927,6365.771101,-74464.482406
115.762214,-17320.819043,-10214.842000,-80286.808190
115.764765,4737.318029,-4885.359217,-74004.825107
115.767316,2960.823768,-2368.659014,-77375.645298
115.769866,-6513.812290,1924.535449,-76456.330700
115.772417,-5181.441594,-888.247130,-77528.864398
115.774968,-1332.370696,2072.576638,-75230.577904
115.777518,12731.542202,-6957.935855,-78294.959896
115.780069,-15396.283594,-2960.823768,-73545.167808
115.782620,-5329.482782,888.247130,-76915.987999
115.785170,-2368.659014,2960.823768,-77222.426198
115.787721,-2960.823768,-5625.565159,-80286.808190
115.790272,1480.411884,-8290.306550,-78754.617194
115.792822,1184.329507,-7698.141797,-73851.606007
115.795373,-12435.459826,-4737.318029,-79061.055394
115.797924,740.205942,1776.494261,-76762.768900
115.800474,3552.988522,2516.700203,-75843.454302
115.803025,-5625.565159,-9474.636058,-79367.493593
115.805576,-3256.906145,10807.006753,-73698.386908
115.808126,-24278.754898,-1184.329507,-71400.100414
115.810677,25018.960840,5181.441594,-74158.044206
115.813228,-11991.336260,-3256.906145,-75996.673402
115.815778,7254.018232,2812.782580,-83044.751983
115.818329,1184.329507,-4885.359217,-77375.645298
115.820880,24426.796086,-26499.372724,-87641.324971
115.823430,-22058.137072,9326.594869,-69408.252119
115.825981,28571.949361,-8882.471304,-81206.122788
115.828532,-888.247130,-7550.100608,-78448.178995
115.831086,-16580.613101,7105.977043,-75996.673402
115.833639,31680.814318,1036.288319,-73698.386908
115.836193,1924.535449,-5773.606348,-75996.673402
115.838747,888.247130,-5033.400406,-77375.645298
115.841301,14952.160028,-2368.659014,-77835.302597
115.843855,5033.400406,-4885.359217,-78754.617194
115.846409,740.205942,2812.782580,-76762.768900
115.848962,8290.306550,-1480.411884,-76303.111601
115.851516,2368.659014,-5477.523971,-77835.302597
115.854070,5033.400406,-3108.864956,-79061.055394
115.856624,11695.253884,-1776.494261,-76609.549800
115.859178,5181.441594,-6513.812290,-78601.398095
115.861732,5625.565159,-2960.823768,-75077.358804
115.864285,12731.542202,-5625.565159,-78141.740796
115.866839,148.041188,296.082377,-76456.330700
115.869393,-4293.194464,4145.153275,-77222.426198
115.871947,11991.336260,-5329.482782,-78754.617194
115.874501,-1924.535449,-14804.118840,-80746.465489
115.877055,25018.960840,5329.482782,-73698.386908
115.879608,5477.523971,-3701.029710,-74617.701505
115.882162,-17764.942608,-12879.583391,-82278.656485
115.884716,22650.301825,2812.782580,-79520.712692
115.887270,-21910.095883,-592.164754,-74617.701505
115.889824,-6661.853478,-10362.883188,-76762.768900
115.892378,13619.789333,-3552.988522,-75077.358804
115.894931,-24574.837274,1924.535449,-76149.892501
115.897485,-6513.812290,-740.205942,-78141.740796
115.900039,19097.313304,-4293.194464,-78907.836294
115.902593,-20725.766376,1628.453072,-72166.195912
115.905147,6513.812290,-6957.935855,-82278.656485
115.907701,3256.906145,2960.823768,-76915.987999
115.910254,-20429.683999,-7402.059420,-78601.398095
115.912808,-4737.318029,-8438.347739,-77069.207099
115.915362,7994.224174,3108.864956,-72932.291410
115.917916,-4441.235652,148.041188,-77222.426198
115.920470,-3404.947333,-1332.370696,-79980.369991
115.923023,0.000000,888.247130,-76149.892501
115.925577,-4145.153275,-3404.947333,-79214.274493
115.928131,296.082377,-4885.359217,-77375.645298
115.930685,-10807.006753,-740.205942,-75690.235202
115.933242,-8142.265362,-3108.864956,-79214.274493
115.935799,12435.459826,-10362.883188,-78601.398095
115.938356,-8290.306550,-1924.535449,-73545.167808
115.940913,-2664.741391,-4885.359217,-76303.111601
115.943470,2812.782580,592.164754,-77528.864398
115.946026,-6513.812290,-740.205942,-79214.274493
115.948583,-1332.370696,-7994.224174,-76149.892501
115.951140,-10510.924376,7994.224174,-74924.139704
115.953697,-4589.276840,-12879.583391,-81206.122788
115.956254,26647.413912,148.041188,-80133.589091
115.958811,-20873.807564,-5033.400406,-77375.645298
115.961368,12731.542202,-1332.370696,-84117.285680
115.963925,24722.878463,-444.123565,-75077.358804
115.966482,-16284.530724,-5329.482782,-71093.662214
115.969039,10658.965565,5921.647536,-70327.566716
115.971596,27091.537477,-5181.441594,-75383.797003
115.974153,-21762.054695,-148.041188,-75690.235202
115.976709,16136.489536,8290.306550,-72932.291410
115.979266,29164.114115,-1480.411884,-80286.808190
115.981823,-18209.066173,-1628.453072,-73545.167808
115.984380,15248.242405,-10807.006753,-81512.560987
115.986937,16284.530724,-3256.906145,-74617.701505
115.989494,-10362.883188,-2664.741391,-78907.836294
115.992051,-444.123565,296.082377,-77682.083497
115.994608,10510.924376,-7402.059420,-78754.617194
115.997165,1184.329507,-3701.029710,-77835.302597
115.999722,5773.606348,1776.494261,-76149.892501
116.002279,8586.388927,-2220.617826,-80593.246390
116.004835,8882.471304,-5625.565159,-78141.740796
116.007392,8438.347739,-5329.482782,-78141.740796
116.009949,9030.512492,-6957.935855,-76456.330700
116.012506,9770.718434,1924.535449,-76456.330700
116.015063,-15840.407159,4145.153275,-75843.454302
116.017620,21910.095883,-6957.935855,-77835.302597
116.020177,-4589.276840,-10955.047942,-79214.274493
116.022734,17024.736666,740.205942,-78141.740796
116.025291,22206.178260,-4145.153275,-74770.920605
116.027848,-19393.395680,5477.523971,-75383.797003
116.030405,11695.253884,-10066.800811,-81512.560987
116.032962,3108.864956,11103.089130,-73851.606007
116.035520,-21021.848753,-12139.377449,-76456.330700
116.038078,7550.100608,-7846.182985,-77375.645298
116.040637,-10658.965565,9918.759623,-77528.864398
116.043195,-16728.654289,-2960.823768,-76303.111601
116.045753,26647.413912,-11103.089130,-80746.465489
116.048312,-5477.523971,5329.482782,-71400.100414
116.050870,-31828.855506,-2812.782580,-79214.274493
116.053428,14952.160028,-5773.606348,-78907.836294
116.055987,-10066.800811,-5773.606348,-77988.521696
116.058545,1776.494261,-12435.459826,-76915.987999
116.061104,4885.359217,1628.453072,-71859.757712
116.063662,1480.411884,1776.494261,-74158.044206
116.066220,-2812.782580,-1332.370696,-75690.235202
116.068779,-2812.782580,-2960.823768,-77835.302597
116.071337,-3552.988522,2812.782580,-75230.577904
116.073895,-6069.688724,1924.535449,-71706.538613
116.076454,-2516.700203,-3256.906145,-77222.426198
116.079012,-2812.782580,-3552.988522,-76149.892501
116.081570,-6069.688724,-6069.688724,-78754.617194
116.084129,-444.123565,-4589.276840,-77222.426198
116.086687,-7846.182985,5329.482782,-72319.415011
116.089246,5625.565159,-4293.194464,-77835.302597
116.091804,-12435.459826,-8290.306550,-79520.712692
116.094362,-15544.324782,8438.347739,-75077.358804
116.096921,1628.453072,-17468.860231,-82431.875585
116.099479,13323.706956,-8882.471304,-83964.066581
116.102037,-12435.459826,-2220.617826,-76456.330700
116.104596,22798.343014,-740.205942,-77069.207099
116.107154,17172.777854,7105.977043,-71093.662214
116.109712,-22206.178260,-2220.617826,-73545.167808
116.112271,36714.214723,-9770.718434,-78294.959896
116.114829,5921.647536,-5329.482782,-77835.302597
116.117387,-21317.931130,296.082377,-75077.358804
116.119946,15544.324782,6217.729913,-70634.004916
116.122504,6513.812290,-5033.400406,-80286.808190
116.125063,-17912.983796,-740.205942,-78294.959896
116.127621,26351.331535,-9622.677246,-77222.426198
116.130179,9622.677246,-7402.059420,-77375.645298
116.132738,-6661.853478,2220.617826,-75996.673402
116.135296,3849.070898,-4885.359217,-79827.150892
116.137856,3997.112087,-4589.276840,-78294.959896
116.140416,2220.617826,-5329.482782,-77835.302597
116.142976,7994.224174,-740.205942,-77375.645298
116.145536,5181.441594,-1924.535449,-76762.768900
116.148096,9030.512492,-4589.276840,-77988.521696
116.150656,8142.265362,-2812.782580,-74464.482406
116.153217,5625.565159,-8586.388927,-77988.521696
116.155777,10510.924376,6513.812290,-74770.920605
116.158337,-6957.935855,0.000000,-76303.111601
116.160897,10658.965565,-10066.800811,-77835.302597
116.163457,15248.242405,5033.400406,-74158.044206
116.166017,-2960.823768,-2664.741391,-74004.825107
116.168577,12139.377449,-14063.912898,-75077.358804
116.171137,2664.741391,14211.954086,-71553.319513
116.173697,-14359.995275,-2368.659014,-73545.167808
116.176257,14211.954086,3997.112087,-76303.111601
116.178817,-15396.283594,-2664.741391,-74158.044206
116.181377,-18357.107362,-18653.189738,-83657.628382
116.183937,19541.436869,1776.494261,-76149.892501
116.186498,1628.453072,-1776.494261,-79214.274493
116.189058,-26943.496289,-5773.606348,-78754.617194
116.191618,20281.642811,296.082377,-77069.207099
116.194178,-19097.313304,10807.006753,-68182.499322
116.196738,-15544.324782,-6365.771101,-76303.111601
116.199298,4293.194464,-9178.553681,-80286.808190
116.201858,-6217.729913,-2812.782580,-78754.617194
116.204418,-2220.617826,-2812.782580,-75996.673402
116.206978,6217.729913,296.082377,-76303.111601
116.209538,-8438.347739,1628.453072,-75537.016103
116.212098,-7105.977043,-5477.523971,-81818.999186
116.214658,-6217.729913,-5181.441594,-79827.150892
116.217218,-5477.523971,-1628.453072,-77069.207099
116.219780,592.164754,-3849.070898,-74311.263306
116.222342,-11103.089130,-1776.494261,-76915.987999
116.224903,888.247130,740.205942,-76149.892501
116.227465,6217.729913,1628.453072,-74158.044206
116.230026,-1332.370696,-7550.100608,-77528.864398
116.232588,-6809.894666,-4145.153275,-76149.892501
116.235150,-14804.118840,6365.771101,-72166.195912
116.237711,-21021.848753,-12879.583391,-79214.274493
116.240273,27683.702231,1332.370696,-80286.808190
116.242834,-16432.571912,-4589.276840,-78601.398095
116.245396,11399.171507,-1776.494261,-82431.875585
116.247958,22650.301825,-1480.411884,-74617.701505
116.250519,-13323.706956,-2516.700203,-71400.100414
116.253081,9474.636058,2368.659014,-71859.757712
116.255643,25907.207970,-8290.306550,-78141.740796
116.258204,-19097.313304,3404.947333,-77375.645298
116.260766,-3404.947333,9770.718434,-72012.976812
116.263327,24130.713709,-5625.565159,-78294.959896
116.265889,-14359.995275,3256.906145,-74311.263306
116.268451,9770.718434,-7550.100608,-78601.398095
116.271012,16432.571912,-7402.059420,-75996.673402
116.273574,-888.247130,444.123565,-78141.740796
116.276135,-2812.782580,3108.864956,-76303.111601
116.278697,5625.565159,-6069.688724,-76915.987999
116.281259,5625.565159,-8734.430116,-78294.959896
116.283820,12139.377449,-444.123565,-73391.948708
116.286382,3256.906145,-3552.988522,-80440.027290
116.288943,9770.718434,-5921.647536,-77682.083497
116.291505,8438.347739,-4885.359217,-78294.959896
116.294067,5773.606348,2368.659014,-75996.673402
116.296628,-1924.535449,592.164754,-75690.235202
116.299190,6217.729913,-6513.812290,-78448.178995
116.301751,4589.276840,-5477.523971,-76915.987999
116.304313,-1184.329507,-2960.823768,-77528.864398
116.306875,25018.960840,-8142.265362,-75383.797003
116.309436,-11103.089130,12879.583391,-73698.386908
116.311998,5033.400406,-11103.089130,-78907.836294
116.314559,6513.812290,10214.842000,-75077.358804
116.317121,-22798.343014,-10214.842000,-77528.864398
116.319683,5329.482782,-16876.695478,-79673.931792
116.322244,1924.535449,8438.347739,-76456.330700
116.324806,-19393.395680,1924.535449,-71859.757712
116.327368,2368.659014,-14804.118840,-78448.178995
116.329930,19097.313304,12287.418637,-71553.319513
116.332492,-29608.237680,3256.906145,-74770.920605
116.335054,592.164754,-4441.235652,-75843.454302
116.337615,-1036.288319,-4145.153275,-79673.931792
116.340177,-11399.171507,-5033.400406,-78294.959896
116.342739,4589.276840,-4885.359217,-80286.808190
116.345301,5033.400406,3256.906145,-72932.291410
116.347863,-2664.741391,1184.329507,-77222.426198
116.350425,-6957.935855,-3701.029710,-78601.398095
116.352986,-1036.288319,-5477.523971,-78294.959896
116.355548,-6513.812290,5625.565159,-72932.291410
116.358110,-7105.977043,-3108.864956,-76303.111601
116.360672,-9474.636058,-3701.029710,-76456.330700
116.363234,1036.288319,3552.988522,-77835.302597
116.365796,6809.894666,-1776.494261,-78294.959896
116.368357,-2072.576638,-7105.977043,-75843.454302
116.370919,-5477.523971,-6513.812290,-74770.920605
116.373481,-1332.370696,4145.153275,-77528.864398
116.376043,-23982.672521,-11399.171507,-77528.864398
116.378605,30200.402434,888.247130,-81206.122788
116.381167,-20577.725188,-6513.812290,-78601.398095
116.383729,10658.965565,-1332.370696,-84117.285680
116.386290,26499.372724,0.000000,-72166.195912
116.388852,-13175.665768,-7550.100608,-72472.634111
116.391414,5033.400406,2812.782580,-70327.566716
116.393976,29904.320057,-7698.141797,-78141.740796
116.396538,-6661.853478,-4737.318029,-79520.712692
116.399100,-2368.659014,10362.883188,-71400.100414
116.401661,18653.189738,-3552.988522,-80593.246390
116.404223,-6069.688724,1036.288319,-73851.606007
116.406785,6809.894666,-8142.265362,-77682.083497
116.409347,15100.201217,-6069.688724,-74311.263306
116.411909,-4441.235652,-1184.329507,-80133.589091
116.414471,3849.070898,1184.329507,-77835.302597
116.417032,7105.977043,-3849.070898,-75230.577904
116.419594,1924.535449,-4589.276840,-75537.016103
116.422156,6217.729913,-1776.494261,-77375.645298
116.424718,10807.006753,-2516.700203,-78907.836294
116.427281,4145.153275,-4885.359217,-78141.740796
116.429843,10658.965565,592.164754,-76149.892501
116.432405,-2220.617826,3701.029710,-74617.701505
116.434968,5181.441594,-5181.441594,-77835.302597
116.437530,7994.224174,-9918.759623,-76762.768900
116.440093,11103.089130,6365.771101,-75690.235202
116.442655,9770.718434,-4885.359217,-74464.482406
116.445217,-18505.148550,-11695.253884,-83810.847481
116.447780,27683.702231,-3849.070898,-78141.740796
116.450342,-22650.301825,5033.400406,-74158.044206
116.452904,-4441.235652,-4441.235652,-81665.780087
116.455467,13767.830521,-888.247130,-71706.538613
116.458029,-31828.855506,-5329.482782,-82431.875585
116.460591,-592.164754,-1480.411884,-75996.673402
116.463154,11843.295072,-444.123565,-76456.330700
116.465716,-17320.819043,3997.112087,-75537.016103
116.468278,888.247130,-6365.771101,-84423.723880
116.470841,6365.771101,2072.576638,-76456.330700
116.473403,-18653.189738,-2960.823768,-74924.139704
116.475965,-3108.864956,-9326.594869,-77528.864398
116.478528,6809.894666,1924.535449,-73851.606007
116.481090,-7698.141797,-3849.070898,-79520.712692
116.483653,3404.947333,-4885.359217,-79214.274493
116.486215,-4589.276840,-2812.782580,-79367.493593
116.488777,-8734.430116,-6661.853478,-78907.836294
116.491340,-2664.741391,-5625.565159,-77375.645298
116.493902,-8586.388927,-2812.782580,-77528.864398
116.496464,-10658.965565,-3552.988522,-79061.055394
116.499027,3404.947333,1332.370696,-77988.521696
116.501589,9770.718434,2664.741391,-74924.139704
116.504151,-8586.388927,-5625.565159,-76915.987999
116.506714,-2368.659014,-11843.295072,-78601.398095
116.509276,-12583.501014,6957.935855,-75996.673402
116.511838,-26203.290347,-6365.771101,-76149.892501
116.514401,26351.331535,3997.112087,-79214.274493
116.516963,-20281.642811,-6217.729913,-78601.398095
116.519525,11399.171507,-2220.617826,-86568.791274
116.522088,19245.354492,-1628.453072,-73238.729609
116.524650,-4145.153275,-11695.253884,-73698.386908
116.527212,-2516.700203,8882.471304,-68182.499322
116.529774,30052.361245,-5921.647536,-77528.864398
116.532335,-19097.313304,-740.205942,-76762.768900
116.534897,-592.164754,6217.729913,-72932.291410
116.537459,18653.189738,-2516.700203,-79980.369991
116.540020,-3552.988522,888.247130,-73698.386908
116.542582,5921.647536,-6661.853478,-76915.987999
116.545144,11251.130318,-1332.370696,-74004.825107
116.547705,1036.288319,-3404.947333,-79673.931792
116.550267,-3108.864956,-2664.741391,-78601.398095
116.552829,18209.066173,-3997.112087,-75383.797003
116.555390,-1924.535449,-4293.194464,-78907.836294
116.557952,-1184.329507,-3701.029710,-76456.330700
116.560514,9918.759623,-3256.906145,-79367.493593
116.563075,10658.965565,888.247130,-74617.701505
116.565637,-592.164754,-592.164754,-77988.521696
116.568199,11251.130318,-2516.700203,-77375.645298
116.570760,2220.617826,-5181.441594,-77528.864398
116.573322,6069.688724,-4293.194464,-75843.454302
116.575884,4145.153275,3849.070898,-74311.263306
116.578446,23242.466579,-9030.512492,-77069.207099
116.581007,-4589.276840,16136.489536,-70327.566716
116.583569,-1332.370696,-7698.141797,-74004.825107
116.586131,12139.377449,11251.130318,-72779.072310
116.588692,-24574.837274,-8586.388927,-78141.740796
116.591254,-3256.906145,-17172.777854,-81972.218286
116.593816,14952.160028,6957.935855,-78448.178995
116.596377,-22650.301825,2664.741391,-72012.976812
116.598939,19393.395680,-17468.860231,-82891.532884
116.601501,4885.359217,8586.388927,-71706.538613
116.604062,-19985.560434,3552.988522,-75230.577904
116.606624,-9178.553681,-5477.523971,-77069.207099
116.609186,4737.318029,-7105.977043,-79214.274493
116.611747,-8142.265362,-1924.535449,-76456.330700
116.614309,-888.247130,-10066.800811,-79980.369991
116.616871,5033.400406,3997.112087,-74004.825107
116.619432,-11695.253884,1480.411884,-76149.892501
116.621994,6513.812290,-9918.759623,-78754.617194
116.624556,-2664.741391,-296.082377,-72625.853210
116.627117,-6661.853478,444.123565,-72166.195912
116.629678,-14063.912898,-6217.729913,-79367.493593
116.632239,-4737.318029,2072.576638,-77375.645298
116.634800,11399.171507,6513.812290,-74464.482406
116.637362,-4145.153275,-7994.224174,-77988.521696
116.639923,-3404.947333,-8586.388927,-75690.235202
116.642484,10955.047942,740.205942,-74770.920605
116.645046,-31236.690752,-5033.400406,-74617.701505
116.647607,26795.455100,4293.194464,-78141.740796
116.650168,-11695.253884,-1924.535449,-72166.195912
116.652730,2220.617826,1036.288319,-83964.066581
116.655291,-592.164754,-10658.965565,-80746.465489
116.657852,28127.825796,-25907.207970,-86875.229473
116.660414,-27979.784608,7994.224174,-69408.252119
116.662975,29608.237680,-4885.359217,-80286.808190
116.665536,888.247130,-2220.617826,-76456.330700
116.668098,-5181.441594,4441.235652,-73391.948708
116.670659,16728.654289,-1480.411884,-78141.740796
116.673221,4589.276840,-148.041188,-77375.645298
116.675782,-2960.823768,-2516.700203,-75843.454302
116.678343,1184.329507,-4441.235652,-77222.426198
116.680905,7402.059420,-2368.659014,-78141.740796
116.683466,1184.329507,444.123565,-75843.454302
116.686027,4441.235652,-1776.494261,-77988.521696
116.688589,9474.636058,-5773.606348,-77222.426198
116.691150,9918.759623,-1628.453072,-75230.577904
116.693711,3256.906145,-1036.288319,-76456.330700
116.696273,11695.253884,-1184.329507,-78448.178995
116.698834,2664.741391,-2072.576638,-76915.987999
116.701395,2220.617826,-5181.441594,-77069.207099
116.703957,13027.624579,-7402.059420,-78141.740796
116.706518,13175.665768,3701.029710,-73851.606007
116.709079,3552.988522,-4145.153275,-77682.083497
116.711641,-18949.272115,-11695.253884,-87334.886772
116.714202,29904.320057,-6069.688724,-83044.751983
116.716763,-27091.537477,4441.235652,-76303.111601
116.719325,-3108.864956,-5477.523971,-79367.493593
116.721886,16728.654289,-9474.636058,-76456.330700
116.724448,-13027.624579,9030.512492,-73238.729609
116.727009,-16728.654289,-6069.688724,-77069.207099
116.729570,21910.095883,-8290.306550,-78448.178995
116.732132,-23242.466579,3404.947333,-75230.577904
116.734694,4885.359217,-6957.935855,-84883.381178
116.737255,10955.047942,-740.205942,-77375.645298
116.739817,-14952.160028,-2960.823768,-73851.606007
116.742379,-9030.512492,-7994.224174,-79061.055394
116.744940,5773.606348,-5625.565159,-77375.645298
116.747502,2220.617826,2368.659014,-75996.673402
116.750064,-148.041188,-2960.823768,-76456.330700
116.752626,-888.247130,-4885.359217,-79214.274493
116.755187,-5181.441594,-296.082377,-76303.111601
116.757749,-9770.718434,-2960.823768,-74770.920605
116.760311,296.082377,-6513.812290,-76915.987999
116.762872,-12435.459826,1480.411884,-77835.302597
116.765434,8586.388927,1924.535449,-76915.987999
116.767996,4145.153275,-5329.482782,-76303.111601
116.770557,-10362.883188,-3997.112087,-75077.358804
116.773119,5625.565159,-1184.329507,-74617.701505
116.775681,-21614.013506,-6217.729913,-75690.235202
116.778243,16580.613101,6217.729913,-78907.836294
116.780804,-10658.965565,-3849.070898,-78601.398095
116.783366,5625.565159,-2960.823768,-85649.476676
116.785928,23834.631332,-5033.400406,-74770.920605
116.788489,-4589.276840,-8734.430116,-74617.701505
116.791051,-25315.043216,10807.006753,-68795.375720
116.793613,34641.638086,-5625.565159,-77682.083497
116.796174,-4885.359217,-1480.411884,-78141.740796
116.798736,-2960.823768,7254.018232,-72319.415011
116.801298,17468.860231,-740.205942,-75230.577904
116.803860,592.164754,2072.576638,-73391.948708
116.806421,1628.453072,-4145.153275,-77222.426198
116.808983,14508.036463,-8438.347739,-77682.083497
116.811545,-4589.276840,1036.288319,-78141.740796
116.814106,-7994.224174,-1036.288319,-78754.617194
116.816668,14211.954086,-2220.617826,-75383.797003
116.819230,12583.501014,-1924.535449,-76149.892501
116.821791,2516.700203,-6217.729913,-76762.768900
116.824353,10510.924376,1332.370696,-77835.302597
116.826915,1480.411884,6217.729913,-74158.044206
116.829477,4737.318029,-8734.430116,-79520.712692
116.832038,10066.800811,-3552.988522,-74311.263306
116.834599,14952.160028,4885.359217,-75843.454302
116.837160,-8586.388927,-2516.700203,-76762.768900
116.839721,19541.436869,-9178.553681,-76303.111601
116.842281,-5625.565159,15840.407159,-68642.156621
116.844842,2072.576638,-13767.830521,-79061.055394
116.847403,10955.047942,11547.212695,-72932.291410
116.849964,-27387.619854,-7254.018232,-75690.235202
116.852524,5181.441594,-17912.983796,-81818.999186
116.855085,5625.565159,10658.965565,-76915.987999
116.857646,-21910.095883,2516.700203,-74464.482406
116.860207,5329.482782,-15544.324782,-79367.493593
116.862767,8438.347739,9326.594869,-70940.443115
116.865328,-16580.613101,0.000000,-78601.398095
116.867889,-3552.988522,-2960.823768,-76149.892501
116.870450,2516.700203,-7254.018232,-80133.589091
116.873011,-11399.171507,-3256.906145,-74770.920605
116.875571,5477.523971,-7105.977043,-78601.398095
116.878132,3108.864956,2812.782580,-74924.139704
116.880693,-10955.047942,740.205942,-78141.740796
116.883254,-15396.283594,-2516.700203,-80286.808190
116.885814,296.082377,-5477.523971,-80286.808190
116.888375,-7402.059420,-1332.370696,-73545.167808
116.890936,-10510.924376,740.205942,-75230.577904
116.893497,12139.377449,3256.906145,-78601.398095
116.896057,-7254.018232,-740.205942,-78601.398095
116.898618,-3849.070898,-10510.924376,-77988.521696
116.901179,-11843.295072,6069.688724,-74004.825107
116.903740,-6069.688724,-16728.654289,-77375.645298
116.906301,18801.230927,-3997.112087,-84423.723880
116.908861,-11103.089130,-6957.935855,-82585.094684
116.911422,14952.160028,-296.082377,-81818.999186
116.913983,24278.754898,3404.947333,-72012.976812
116.916544,-9178.553681,-3552.988522,-69561.471218
116.919104,13915.871710,-2960.823768,-73085.510509
116.921665,17024.736666,-6069.688724,-80593.246390
116.924226,-16432.571912,2368.659014,-73545.167808
116.926787,20873.807564,-5625.565159,-78601.398095
116.929347,9326.594869,-6069.688724,-81052.903688
116.931908,-7846.182985,3256.906145,-76762.768900
116.934469,10362.883188,-4885.359217,-76149.892501
116.937030,11695.253884,-10214.842000,-79673.931792
116.939590,1776.494261,-2220.617826,-76456.330700
116.942151,740.205942,-3849.070898,-78907.836294
116.944711,8438.347739,-3404.947333,-75230.577904
116.947272,7846.182985,-3108.864956,-76915.987999
116.949833,9770.718434,-4293.194464,-78448.178995
116.952393,5773.606348,2220.617826,-76762.768900
116.954954,1036.288319,1776.494261,-75690.235202
116.957515,9474.636058,-592.164754,-74617.701505
116.960075,6957.935855,-11991.336260,-78294.959896
116.962636,15988.448347,2516.700203,-74464.482406
116.965196,-3701.029710,-1480.411884,-77682.083497
116.967757,19393.395680,-9474.636058,-75230.577904
116.970318,-9474.636058,13915.871710,-70634.004916
116.972878,5773.606348,-10807.006753,-78448.178995
116.975439,16580.613101,3108.864956,-78294.959896
116.978000,-15100.201217,-1776.494261,-73238.729609
116.980560,-20429.683999,-20873.807564,-85343.038477
116.983121,22798.343014,1480.411884,-75996.673402
116.985681,-17024.736666,3997.112087,-72779.072310
116.988242,6069.688724,-14508.036463,-79673.931792
116.990803,5477.523971,9622.677246,-70787.224015
116.993363,-14063.912898,1480.411884,-79827.150892
116.995924,-5329.482782,-2664.741391,-77528.864398
116.998485,2960.823768,-7105.977043,-74004.825107
117.001045,-6809.894666,-592.164754,-75690.235202
117.003606,592.164754,-1628.453072,-79061.055394
117.006166,1036.288319,-444.123565,-74311.263306
117.008727,-4589.276840,-1036.288319,-76149.892501
117.011288,-10807.006753,-1924.535449,-78754.617194
117.013848,-2516.700203,-7550.100608,-78601.398095
117.016409,1036.288319,-3108.864956,-75537.016103
117.018970,0.000000,2812.782580,-77988.521696
117.021530,-6513.812290,-3404.947333,-77682.083497
117.024091,1036.288319,-11547.212695,-80133.589091
117.026651,-17616.901420,5921.647536,-72779.072310
117.029212,19097.313304,-11843.295072,-76762.768900
117.031773,-19393.395680,-5477.523971,-71859.757712
117.034333,6069.688724,11547.212695,-73238.729609
117.036894,7698.141797,-1628.453072,-74464.482406
117.039455,4441.235652,2072.576638,-83044.751983
117.042016,-10658.965565,-3552.988522,-73085.510509
117.044577,36566.173535,-29904.320057,-89939.611465
117.047138,-18653.189738,7550.100608,-70480.785816
117.049699,11399.171507,-4293.194464,-83044.751983
117.052259,11399.171507,-6365.771101,-79520.712692
117.054820,-8734.430116,-3404.947333,-83044.751983
117.057381,17172.777854,2368.659014,-72932.291410
117.059942,24426.796086,-5921.647536,-77069.207099
117.062503,-5181.441594,-4145.153275,-76609.549800
117.065064,-740.205942,-5477.523971,-77682.083497
117.067625,6661.853478,-2516.700203,-77682.083497
117.070186,13619.789333,-1332.370696,-76609.549800
117.072747,6365.771101,-4293.194464,-76149.892501
117.075308,10066.800811,-9770.718434,-78754.617194
117.077869,7550.100608,9030.512492,-74464.482406
117.080429,-5329.482782,-296.082377,-78141.740796
117.082990,5773.606348,-6365.771101,-77528.864398
117.085551,16876.695478,-8142.265362,-74617.701505
117.088112,10807.006753,740.205942,-75843.454302
117.090673,-5921.647536,-6365.771101,-77375.645298
117.093234,-5773.606348,-13175.665768,-80286.808190
117.095795,11991.336260,5477.523971,-76456.330700
117.098356,-16284.530724,-2072.576638,-73238.729609
117.100917,15692.365970,1332.370696,-79214.274493
117.103478,-8438.347739,-592.164754,-73238.729609
117.106039,-26203.290347,-17024.736666,-83504.409282
117.108599,17172.777854,3404.947333,-74924.139704
117.111160,-7994.224174,-296.082377,-77528.864398
117.113721,444.123565,-7698.141797,-74770.920605
117.116282,11399.171507,-2072.576638,-76915.987999
117.118843,-6957.935855,8586.388927,-71400.100414
117.121404,-11251.130318,-6069.688724,-77682.083497
117.123965,1036.288319,-3404.947333,-74924.139704
117.126526,592.164754,-2368.659014,-77375.645298
117.129087,-4441.235652,-1924.535449,-75537.016103
117.131648,-888.247130,-1184.329507,-76303.111601
117.134209,-6365.771101,-1036.288319,-78141.740796
117.136770,-9178.553681,-5181.441594,-77528.864398
117.139330,-1036.288319,-1628.453072,-76149.892501
117.141891,-2516.700203,-296.082377,-75996.673402
117.144451,2516.700203,-2368.659014,-79673.931792
117.147011,-6661.853478,148.041188,-75690.235202
117.149572,-5773.606348,-9326.594869,-78601.398095
117.152132,-7846.182985,6809.894666,-74004.825107
117.154692,-6513.812290,-14952.160028,-78754.617194
117.157253,14804.118840,-7846.182985,-83504.409282
117.159813,-15396.283594,-1332.370696,-77988.521696
117.162373,2960.823768,-444.123565,-85955.914876
117.164933,28719.990550,-888.247130,-73085.510509
117.167494,-9622.677246,-8586.388927,-73238.729609
117.170054,5181.441594,5329.482782,-70327.566716
117.172614,26943.496289,-3997.112087,-78754.617194
117.175175,-18505.148550,2368.659014,-75077.358804
117.177735,17764.942608,296.082377,-75230.577904
117.180295,6365.771101,-5921.647536,-78754.617194
117.182856,-4441.235652,3849.070898,-72166.195912
117.185416,6217.729913,-1924.535449,-75537.016103
117.187976,12583.501014,-5773.606348,-77682.083497
117.190536,-3404.947333,-3108.864956,-78601.398095
117.193097,7698.141797,-1776.494261,-77682.083497
117.195657,9326.594869,-1924.535449,-75383.797003
117.198217,2812.782580,-9622.677246,-79827.150892
117.200778,9474.636058,296.082377,-77375.645298
117.203338,4441.235652,5477.523971,-76609.549800
117.205898,1332.370696,-5181.441594,-76915.987999
117.208459,14508.036463,-10214.842000,-75843.454302
117.211019,14656.077652,1628.453072,-73698.386908
117.213579,-4737.318029,-1480.411884,-78294.959896
117.216139,20429.683999,-4737.318029,-76762.768900
117.218700,-18061.024985,11399.171507,-73085.510509
117.221260,15396.283594,-14508.036463,-78754.617194
117.223820,1332.370696,10362.883188,-74464.482406
117.226381,-18653.189738,-10362.883188,-78294.959896
117.228941,-15396.283594,-19393.395680,-83351.190182
117.231501,17172.777854,8438.347739,-75843.454302
117.234062,-18209.066173,296.082377,-75996.673402
117.236622,10214.842000,-17172.777854,-82125.437386
117.239182,2368.659014,8290.306550,-70787.224015
117.241742,-9770.718434,-4885.359217,-82278.656485
117.244303,-2960.823768,2368.659014,-75537.016103
117.246863,5181.441594,-6365.771101,-77528.864398
117.249423,-15544.324782,-6365.771101,-78448.178995
117.251984,148.041188,-6513.812290,-78448.178995
117.254544,-5773.606348,1480.411884,-76303.111601
117.257104,1184.329507,-6513.812290,-79367.493593
117.259664,-15692.365970,-1628.453072,-75690.235202
117.262225,4293.194464,-3108.864956,-76609.549800
117.264785,-8290.306550,1628.453072,-73851.606007
117.267345,3849.070898,148.041188,-74311.263306
117.269906,-4145.153275,-3849.070898,-77222.426198
117.272466,-13175.665768,-6809.894666,-78294.959896
117.275026,-3108.864956,3701.029710,-74617.701505
117.277586,-20873.807564,-10807.006753,-74311.263306
117.280147,19689.478057,-1332.370696,-80746.465489
117.282707,-10658.965565,-4293.194464,-79827.150892
117.285267,10955.047942,-2664.741391,-86722.010374
117.287828,22946.384202,1184.329507,-73085.510509
117.290388,-9918.759623,-4589.276840,-70174.347617
117.292948,13915.871710,-740.205942,-72166.195912
117.295508,21317.931130,-4737.318029,-77222.426198
117.298069,-21762.054695,888.247130,-75383.797003
117.300629,3404.947333,6365.771101,-72779.072310
117.303189,16136.489536,-7698.141797,-79214.274493
117.305750,-10066.800811,5329.482782,-72932.291410
117.308310,8882.471304,-3849.070898,-75996.673402
117.310870,10807.006753,-10066.800811,-77835.302597
117.313430,-1480.411884,-5033.400406,-80899.684589
117.315991,3108.864956,740.205942,-79980.369991
117.318551,11843.295072,-4589.276840,-74770.920605
117.321111,7254.018232,-6069.688724,-79367.493593
117.323672,11547.212695,888.247130,-76303.111601
117.326232,-3849.070898,2812.782580,-79214.274493
117.328792,1924.535449,-5921.647536,-78294.959896
117.331352,23982.672521,-11843.295072,-73698.386908
117.333913,9474.636058,4737.318029,-74617.701505
117.336473,-1628.453072,-3552.988522,-77375.645298
117.339033,7994.224174,-17024.736666,-79061.055394
117.341594,888.247130,13471.748144,-74004.825107
117.344154,-13175.665768,-1036.288319,-74004.825107
117.346713,740.205942,-3404.947333,-81359.341888
117.349273,12287.418637,-1628.453072,-74617.701505
117.351832,-35381.844028,-9030.512492,-82738.313784
117.354392,7105.977043,-296.082377,-75843.454302
117.356951,3256.906145,592.164754,-76915.987999
117.359511,-10214.842000,-7254.018232,-75077.358804
117.362070,8734.430116,1776.494261,-76915.987999
117.364630,-9770.718434,5625.565159,-72932.291410
117.367189,-17024.736666,-2960.823768,-76149.892501
117.369749,2072.576638,-7402.059420,-77222.426198
117.372308,2960.823768,296.082377,-74770.920605
117.374867,-7105.977043,-2812.782580,-77528.864398
117.377427,-1332.370696,-1036.288319,-77375.645298
117.379986,-9622.677246,-2516.700203,-75537.016103
117.382546,-6217.729913,-4441.235652,-80286.808190
117.385105,0.000000,-740.205942,-77682.083497
117.387665,4293.194464,444.123565,-77375.645298
117.390224,-8734.430116,-4293.194464,-75843.454302
117.392784,-6513.812290,-6957.935855,-79214.274493
117.395343,-11399.171507,8734.430116,-76915.987999
117.397903,740.205942,-14359.995275,-78294.959896
117.400462,7402.059420,-9918.759623,-83504.409282
117.403022,-3997.112087,-296.082377,-76149.892501
117.405581,17024.736666,5477.523971,-74464.482406
117.408141,16432.571912,7550.100608,-74004.825107
117.410700,-14063.912898,-3256.906145,-72779.072310
117.413260,5625.565159,444.123565,-72166.195912
117.415819,25907.207970,-4145.153275,-76456.330700
117.418379,-18949.272115,3849.070898,-75690.235202
117.420938,18801.230927,-3256.906145,-76915.987999
117.423497,3997.112087,-6365.771101,-80593.246390
117.426057,-4293.194464,-888.247130,-80133.589091
117.428616,18949.272115,-6069.688724,-75230.577904
117.431176,6661.853478,-2960.823768,-75537.016103
117.433735,-6217.729913,-148.041188,-74924.139704
117.436295,13915.871710,-7550.100608,-78601.398095
117.438854,10658.965565,148.041188,-72779.072310
117.441414,-888.247130,-5625.565159,-79214.274493
117.443973,14804.118840,-296.082377,-75383.797003
117.446533,1628.453072,888.247130,-77222.426198
117.449092,-2220.617826,-4293.194464,-77835.302597
117.451651,18949.272115,-10362.883188,-75690.235202
117.454210,14656.077652,3108.864956,-74924.139704
117.456769,-4441.235652,-5033.400406,-76149.892501
117.459328,-22354.219448,-9326.594869,-83657.628382
117.461887,25463.084405,-3701.029710,-81665.780087
117.464446,-23834.631332,-1480.411884,-76609.549800
117.467006,2960.823768,-4589.276840,-77528.864398
117.469565,15544.324782,-1036.288319,-74158.044206
117.472124,-38934.832549,-4885.359217,-80899.684589
117.474683,5773.606348,-444.123565,-77835.302597
117.477242,17172.777854,-4589.276840,-78601.398095
117.479801,-16580.613101,-1628.453072,-75537.016103
117.482360,5181.441594,-4885.359217,-84270.504780
117.484919,9770.718434,2220.617826,-72472.634111
117.487478,-7698.141797,-3108.864956,-76149.892501
117.490038,-5329.482782,-5773.606348,-79061.055394
117.492597,3552.988522,1036.288319,-74464.482406
117.495156,-4885.359217,-4293.194464,-76762.768900
117.497715,-6661.853478,1332.370696,-73238.729609
117.500274,-3701.029710,-5773.606348,-81052.903688
117.502833,-10066.800811,-1776.494261,-78141.740796
117.505392,8882.471304,4885.359217,-75230.577904
117.507951,4441.235652,-2664.741391,-74770.920605
117.510510,-18357.107362,-13619.789333,-81972.218286
117.513069,-5921.647536,5329.482782,-77375.645298
117.515629,16432.571912,-7254.018232,-77069.207099
117.518188,-23390.507767,-9030.512492,-72932.291410
117.520747,23390.507767,13471.748144,-67876.061123
117.523306,1184.329507,1036.288319,-73085.510509
117.525865,-7105.977043,1036.288319,-83657.628382
117.528424,20281.642811,-7402.059420,-77375.645298
117.530983,33605.349767,-26055.249158,-85036.600278
117.533542,-28571.949361,5921.647536,-72012.976812
117.536101,22946.384202,-3108.864956,-81206.122788
117.538660,12435.459826,-1628.453072,-76762.768900
117.541219,-15692.365970,-2368.659014,-80899.684589
117.543778,20133.601622,1480.411884,-72932.291410
117.546337,11103.089130,-4589.276840,-76456.330700
117.548896,-6809.894666,-3701.029710,-75843.454302
117.551455,-2516.700203,-1036.288319,-74924.139704
117.554014,20133.601622,-444.123565,-75230.577904
117.556572,-1184.329507,-2664.741391,-77528.864398
117.559131,6217.729913,-5033.400406,-77835.302597
117.561690,17024.736666,888.247130,-75077.358804
117.564249,-4737.318029,-2664.741391,-79214.274493
117.566808,1628.453072,-888.247130,-77682.083497
117.569367,17616.901420,-9030.512492,-78754.617194
117.571926,10658.965565,5773.606348,-72932.291410
117.574485,4885.359217,-6809.894666,-75996.673402
117.577044,-15840.407159,-8438.347739,-81359.341888
117.579603,15988.448347,-888.247130,-82891.532884
117.582162,-24722.878463,2960.823768,-75077.358804
117.584721,6809.894666,-5921.647536,-81818.999186
117.587280,7846.182985,444.123565,-72012.976812
117.589839,-29312.155303,-8882.471304,-80593.246390
117.592398,1184.329507,444.123565,-76762.768900
117.594957,1184.329507,0.000000,-77988.521696
117.597516,-17616.901420,-740.205942,-75690.235202
117.600074,8586.388927,-4293.194464,-81512.560987
117.602633,-444.123565,6513.812290,-74311.263306
117.605192,-11843.295072,-5181.441594,-75843.454302
117.607751,444.123565,-8142.265362,-78141.740796
117.610310,-6661.853478,1184.329507,-76303.111601
117.612869,2960.823768,-7550.100608,-80746.465489
117.615428,-4589.276840,-5921.647536,-75230.577904
117.617987,-11251.130318,-148.041188,-77988.521696
117.620546,-2812.782580,148.041188,-78294.959896
117.623105,2368.659014,148.041188,-77528.864398
117.625664,-3701.029710,-1332.370696,-75383.797003
117.628223,-14063.912898,-9474.636058,-78141.740796
117.630782,-9326.594869,3849.070898,-78601.398095
117.633340,12435.459826,-11251.130318,-78907.836294
117.635899,-13619.789333,-8734.430116,-73698.386908
117.638458,7698.141797,11843.295072,-70940.443115
117.641017,11547.212695,4293.194464,-70940.443115
117.643576,9770.718434,6365.771101,-75537.016103
117.646135,-9770.718434,-8586.388927,-77069.207099
117.648694,35677.926404,-27239.578666,-83964.066581
117.651253,-19541.436869,7994.224174,-68948.594820
117.653812,15544.324782,-3256.906145,-83351.190182
117.656371,15988.448347,-4737.318029,-79214.274493
117.658930,-11991.336260,-1184.329507,-79827.150892
117.661489,14952.160028,296.082377,-74311.263306
117.664048,12731.542202,-5329.482782,-77528.864398
117.666607,-3997.112087,-1924.535449,-74004.825107
117.669166,-2220.617826,-740.205942,-76149.892501
117.671725,13767.830521,-148.041188,-79827.150892
117.674284,4145.153275,-1332.370696,-77375.645298
117.676843,8734.430116,-3849.070898,-74158.044206
117.679402,10362.883188,-3404.947333,-76456.330700
117.681961,-148.041188,-888.247130,-77988.521696
117.684520,10807.006753,-4589.276840,-77375.645298
117.687080,10955.047942,-4145.153275,-76609.549800
117.689639,2960.823768,-4441.235652,-75077.358804
117.692198,19541.436869,-9474.636058,-75383.797003
117.694757,-11991.336260,11695.253884,-75230.577904
117.697316,5181.441594,-7254.018232,-77835.302597
117.699875,3404.947333,5625.565159,-74770.920605
117.702434,-22946.384202,-8882.471304,-77682.083497
117.704993,13175.665768,-12139.377449,-77988.521696
117.707552,-5773.606348,6809.894666,-75843.454302
117.710111,-26943.496289,-148.041188,-73238.729609
117.712670,19393.395680,-8290.306550,-81512.560987
117.715229,-444.123565,6809.894666,-73238.729609
117.717788,-7994.224174,-4885.359217,-79214.274493
117.720347,6661.853478,1036.288319,-73545.167808
117.722906,-1924.535449,-5181.441594,-77222.426198
117.725465,-10362.883188,-4441.235652,-78294.959896
117.728024,2664.741391,-296.082377,-74924.139704
117.730583,-3404.947333,-7550.100608,-74924.139704
117.733142,-11547.212695,-2368.659014,-74004.825107
117.735701,4293.194464,-296.082377,-75537.016103
117.738259,2072.576638,2812.782580,-79214.274493
117.740817,-7402.059420,-1776.494261,-75077.358804
117.743376,-4589.276840,-11103.089130,-78141.740796
117.745934,-13767.830521,-3849.070898,-78601.398095
117.748492,9326.594869,-1332.370696,-77375.645298
117.751050,-18653.189738,-3849.070898,-73851.606007
117.753609,20281.642811,7846.182985,-76915.987999
117.756167,-12139.377449,-7105.977043,-79367.493593
117.758725,-3552.988522,0.000000,-81972.218286
117.761284,17912.983796,-6809.894666,-77069.207099
117.763842,2220.617826,-17912.983796,-81512.560987
117.766400,-11695.253884,4293.194464,-72625.853210
117.768959,35825.967593,-1776.494261,-75230.577904
117.771517,-3849.070898,740.205942,-76149.892501
117.774075,-1628.453072,5921.647536,-72166.195912
117.776634,14804.118840,-5033.400406,-77528.864398
117.779192,-1480.411884,-296.082377,-75690.235202
117.781750,-1924.535449,-1924.535449,-74464.482406
117.784309,5329.482782,-5181.441594,-77682.083497
117.786867,8290.306550,-148.041188,-80746.465489
117.789425,3701.029710,-1628.453072,-77682.083497
117.791983,14656.077652,-4441.235652,-74617.701505
117.794542,3701.029710,-2664.741391,-75690.235202
117.797100,-148.041188,-1628.453072,-77835.302597
117.799658,17468.860231,-5625.565159,-77682.083497
117.802217,4885.359217,-3256.906145,-77988.521696
117.804775,-6069.688724,2220.617826,-74004.825107
117.807333,26499.372724,-9326.594869,-76762.768900
117.809892,-12731.542202,6957.935855,-74004.825107
117.812450,6069.688724,-5921.647536,-79214.274493
117.815008,4145.153275,8438.347739,-75230.577904
117.817567,-25315.043216,-10658.965565,-77682.083497
117.820125,13027.624579,-8882.471304,-76762.768900
117.822683,-6365.771101,5477.523971,-77069.207099
117.825242,-24130.713709,-148.041188,-71400.100414
117.827800,6217.729913,-10807.006753,-79980.369991
117.830358,2812.782580,6661.853478,-74311.263306
117.832916,-8290.306550,-3997.112087,-79980.369991
117.835475,1036.288319,592.164754,-74617.701505
117.838033,5181.441594,-7846.182985,-77375.645298
117.840591,-9918.759623,-4293.194464,-78141.740796
117.843149,1776.494261,1776.494261,-75690.235202
117.845707,-4737.318029,-740.205942,-75383.797003
117.848266,-15248.242405,-5329.482782,-76456.330700
117.850824,-296.082377,2072.576638,-77528.864398
117.853382,9474.636058,-296.082377,-76303.111601
117.855940,-9918.759623,-444.123565,-74311.263306
117.858498,-14211.954086,-8882.471304,-77988.521696
117.861056,-4293.194464,-296.082377,-77528.864398
117.863615,4885.359217,-10214.842000,-81052.903688
117.866173,-5773.606348,-8142.265362,-75537.016103
117.868731,13027.624579,14211.954086,-68642.156621
117.871289,2960.823768,1480.411884,-72012.976812
117.873847,6365.771101,9030.512492,-73851.606007
117.876406,-5477.523971,-7550.100608,-77375.645298
117.878964,32124.937883,-25759.166782,-83197.971083
117.881522,-18505.148550,6217.729913,-70940.443115
117.884080,14211.954086,-2072.576638,-81359.341888
117.886638,18949.272115,-4441.235652,-79367.493593
117.889196,-11251.130318,-148.041188,-77528.864398
117.891755,11547.212695,-1924.535449,-74311.263306
117.894313,22650.301825,-10066.800811,-77528.864398
117.896871,-2812.782580,2072.576638,-73545.167808
117.899429,-3108.864956,2368.659014,-73698.386908
117.901987,10214.842000,-3849.070898,-80440.027290
117.904545,13619.789333,740.205942,-76303.111601
117.907104,1184.329507,1628.453072,-72779.072310
117.909662,7402.059420,-5329.482782,-76915.987999
117.912220,5921.647536,-3404.947333,-77682.083497
117.914778,3701.029710,-4441.235652,-78601.398095
117.917336,22058.137072,-1036.288319,-77222.426198
117.919894,28719.990550,-13767.830521,-75996.673402
117.922453,-31384.731941,740.205942,-78601.398095
117.925011,19837.519246,-6957.935855,-83504.409282
117.927569,-6365.771101,5625.565159,-78141.740796
117.930127,-22354.219448,-4293.194464,-75843.454302
117.932685,26055.249158,-7254.018232,-74311.263306
117.935243,-24426.796086,-444.123565,-74464.482406
117.937802,-17172.777854,-3552.988522,-78754.617194
117.940323,12287.418637,-888.247130,-77375.645298
117.942844,-2664.741391,2516.700203,-76915.987999
117.945365,-4145.153275,-6957.935855,-82278.656485
117.947887,6513.812290,296.082377,-74158.044206
117.950408,-3256.906145,-4737.318029,-75843.454302
117.952929,-8290.306550,-6217.729913,-77988.521696
117.955450,4293.194464,-1036.288319,-77375.645298
117.957972,-5625.565159,-1776.494261,-76456.330700
117.960493,-15840.407159,-3256.906145,-75843.454302
117.963014,7846.182985,-444.123565,-75537.016103
117.965535,8290.306550,-2072.576638,-77682.083497
117.968056,-4589.276840,-1776.494261,-75843.454302
117.970578,-17764.942608,-3404.947333,-74617.701505
117.973099,-7698.141797,1924.535449,-77375.645298
117.975620,6957.935855,-15544.324782,-82738.313784
117.978141,296.082377,-11399.171507,-81206.122788
117.980663,7402.059420,13323.706956,-69101.813920
117.983184,9030.512492,3256.906145,-73391.948708
117.985705,6217.729913,5477.523971,-75996.673402
117.988226,-4737.318029,-4145.153275,-70021.128517
117.990748,25018.960840,-14359.995275,-74617.701505
117.993269,-5329.482782,4145.153275,-75077.358804
117.995790,-1036.288319,-296.082377,-80746.465489
117.998311,23834.631332,-10214.842000,-81818.999186
118.000833,-7994.224174,-2072.576638,-77375.645298
118.003354,2960.823768,-740.205942,-76915.987999
118.005875,19985.560434,-9622.677246,-77375.645298
118.008396,-2664.741391,1184.329507,-74004.825107
118.010918,-2368.659014,2812.782580,-72932.291410
118.013439,11251.130318,-4145.153275,-79827.150892
118.015960,14063.912898,-1628.453072,-76456.330700
118.018481,1628.453072,1924.535449,-73238.729609
118.021003,7550.100608,-3997.112087,-76149.892501
118.023524,10658.965565,-5921.647536,-77069.207099
118.026045,4441.235652,1628.453072,-77375.645298
118.028566,9030.512492,-3256.906145,-79214.274493
118.031088,14656.077652,-8142.265362,-75537.016103
118.033609,-20429.683999,10955.047942,-74770.920605
118.036130,14656.077652,-10510.924376,-83504.409282
118.038651,3997.112087,9474.636058,-74311.263306
118.041180,-27091.537477,-7698.141797,-77375.645298
118.043709,14063.912898,-15396.283594,-78601.398095
118.046238,-5625.565159,8142.265362,-74004.825107
118.048767,-24870.919651,-1776.494261,-74004.825107
118.051296,17172.777854,-8438.347739,-79980.369991
118.053825,-5773.606348,2516.700203,-75843.454302
118.056354,-3997.112087,-4885.359217,-80899.684589
118.058883,3108.864956,-1628.453072,-74004.825107
118.061412,-3256.906145,-2368.659014,-75383.797003
118.063941,-5477.523971,-7402.059420,-79367.493593
118.066470,-8734.430116,1628.453072,-75996.673402
118.068999,296.082377,-740.205942,-76762.768900
118.071528,-9622.677246,-2664.741391,-74464.482406
118.074057,-888.247130,1036.288319,-76456.330700
118.076586,3404.947333,-2368.659014,-78448.178995
118.079115,-10510.924376,-5477.523971,-75383.797003
118.081644,-13175.665768,-1776.494261,-76149.892501
118.084172,3849.070898,-148.041188,-75230.577904
118.086701,-19097.313304,-12435.459826,-79367.493593
118.089230,18801.230927,6069.688724,-80286.808190
118.091759,-8290.306550,-8734.430116,-79673.931792
118.094288,10807.006753,-1332.370696,-81665.780087
118.096817,26499.372724,3701.029710,-74158.044206
118.099346,-13619.789333,-7698.141797,-72012.976812
118.101875,-14656.077652,5181.441594,-73238.729609
118.104404,39082.873738,-740.205942,-75537.016103
118.106933,-6809.894666,3256.906145,-75077.358804
118.109462,-740.205942,4589.276840,-73391.948708
118.111991,17616.901420,-9622.677246,-80593.246390
118.114520,-5329.482782,-2220.617826,-76149.892501
118.117049,148.041188,-5773.606348,-76762.768900
118.119578,13175.665768,-6513.812290,-79367.493593
118.122107,4441.235652,3997.112087,-75843.454302
118.124636,1184.329507,2220.617826,-77988.521696
118.127165,10214.842000,-3849.070898,-75230.577904
118.129694,8438.347739,-8438.347739,-78141.740796
118.132223,3997.112087,-2664.741391,-76915.987999
118.134752,9770.718434,-3701.029710,-77682.083497
118.137281,17764.942608,4293.194464,-75996.673402
118.139810,-740.205942,-3997.112087,-73391.948708
118.142345,-9326.594869,-21169.889941,-80440.027290
118.144881,15396.283594,5625.565159,-75537.016103
118.147417,-22354.219448,9770.718434,-74004.825107
118.149953,-888.247130,-7550.100608,-79827.150892
118.152489,12879.583391,-2812.782580,-72166.195912
118.155024,-34345.555709,-6809.894666,-82431.875585
118.157560,-444.123565,-3701.029710,-79214.274493
118.160096,4441.235652,1184.329507,-75537.016103
118.162632,-10510.924376,-4441.235652,-76149.892501
118.165168,7254.018232,-3849.070898,-80593.246390
118.167703,-7105.977043,6957.935855,-73391.948708
118.170239,-148.041188,-3108.864956,-72779.072310
118.172775,-4737.318029,-7402.059420,-78294.959896
118.175311,-3256.906145,3108.864956,-74770.920605
118.177847,740.205942,-5773.606348,-77528.864398
118.180382,-15396.283594,-2664.741391,-76303.111601
118.182918,4145.153275,3108.864956,-74770.920605
118.185454,1036.288319,-7254.018232,-80746.465489
118.187990,-4293.194464,-5773.606348,-78294.959896
118.190526,-9622.677246,-1036.288319,-74770.920605
118.193061,1332.370696,1036.288319,-75537.016103
118.195597,-19541.436869,-14211.954086,-79980.369991
118.198133,23094.425390,5921.647536,-78601.398095
118.200669,-13767.830521,-9178.553681,-80286.808190
118.203205,9918.759623,-2664.741391,-83657.628382
118.205740,27535.661042,4737.318029,-72625.853210
118.208276,-10955.047942,-9474.636058,-73238.729609
118.210812,15100.201217,-1924.535449,-71246.881314
118.213348,18505.148550,-740.205942,-78141.740796
118.215884,-5773.606348,1628.453072,-76456.330700
118.218420,-1332.370696,2960.823768,-74311.263306
118.220955,18653.189738,-9178.553681,-80593.246390
118.223491,-7550.100608,148.041188,-75996.673402
118.226027,-1776.494261,-4293.194464,-75690.235202
118.228563,11251.130318,-10066.800811,-79980.369991
118.231099,8882.471304,888.247130,-78294.959896
118.233634,3256.906145,5477.523971,-75537.016103
118.236170,11251.130318,-5773.606348,-76762.768900
118.238706,8882.471304,-10955.047942,-78754.617194
118.241242,10362.883188,-4293.194464,-76149.892501
118.243783,8438.347739,-148.041188,-78141.740796
118.246325,7550.100608,-592.164754,-78601.398095
118.248867,18357.107362,-6661.853478,-72779.072310
118.251408,-29460.196492,-5773.606348,-79520.712692
118.253950,22502.260637,-7846.182985,-83044.751983
118.256492,-9918.759623,9622.677246,-75230.577904
118.259033,-13915.871710,-3997.112087,-79214.274493
118.261575,6957.935855,-17468.860231,-78907.836294
118.264117,-5477.523971,6957.935855,-74924.139704
118.266658,-20429.683999,-3997.112087,-75383.797003
118.269200,10214.842000,-6217.729913,-78601.398095
118.271742,-3849.070898,3108.864956,-76456.330700
118.274283,-7254.018232,-10955.047942,-83964.066581
118.276825,10510.924376,740.205942,-75077.358804
118.279367,-10214.842000,2960.823768,-69714.690318
118.281908,-5181.441594,-12139.377449,-83351.190182
118.284450,-9770.718434,-2664.741391,-77682.083497
118.286992,-1628.453072,592.164754,-77375.645298
118.289533,-5921.647536,-1776.494261,-75843.454302
118.292075,-3108.864956,-5625.565159,-78907.836294
118.294617,2516.700203,3404.947333,-72319.415011
118.297158,-8586.388927,-7698.141797,-77375.645298
118.299700,-23686.590144,2960.823768,-75690.235202
118.302242,20577.725188,-5773.606348,-75537.016103
118.304783,-23538.548956,-14211.954086,-77988.521696
118.307325,5773.606348,10510.924376,-70174.347617
118.309867,20281.642811,5625.565159,-76303.111601
118.312408,18061.024985,4293.194464,-75230.577904
118.314950,-8734.430116,-4145.153275,-73851.606007
118.317492,24574.837274,-13027.624579,-79061.055394
118.320033,-1184.329507,592.164754,-75537.016103
118.322575,-2368.659014,-2072.576638,-79367.493593
118.325116,26943.496289,-8438.347739,-82278.656485
118.327658,-4145.153275,-1036.288319,-77375.645298
118.330200,3256.906145,-148.041188,-75843.454302
118.332741,8438.347739,-8290.306550,-76762.768900
118.335283,7846.182985,-10807.006753,-81052.903688
118.337825,7846.182985,3404.947333,-75077.358804
118.340366,3108.864956,2960.823768,-76915.987999
118.342908,10066.800811,-5477.523971,-80286.808190
118.345454,4737.318029,-2516.700203,-74004.825107
118.348000,9918.759623,-5921.647536,-76149.892501
118.350546,9474.636058,-5329.482782,-76149.892501
118.353091,14359.995275,3701.029710,-76303.111601
118.355637,23390.507767,-11547.212695,-74617.701505
118.358183,-26203.290347,-7402.059420,-79827.150892
118.360729,14359.995275,-5773.606348,-82738.313784
118.363275,-1036.288319,5477.523971,-77375.645298
118.365821,-19393.395680,-2960.823768,-77375.645298
118.368366,18209.066173,-4293.194464,-74770.920605
118.370912,-29164.114115,-3108.864956,-78448.178995
118.373458,-11547.212695,-5921.647536,-80286.808190
118.376004,9326.594869,888.247130,-76149.892501
118.378550,1628.453072,3404.947333,-76456.330700
118.381096,-6957.935855,-9918.759623,-83044.751983
118.383641,8290.306550,-2368.659014,-74617.701505
118.386187,-7994.224174,1628.453072,-71706.538613
118.388733,-5329.482782,-9178.553681,-81818.999186
118.391279,-9030.512492,3404.947333,-75230.577904
118.393825,-5181.441594,-1924.535449,-80133.589091
118.396370,-1036.288319,-2220.617826,-75537.016103
118.398916,-3997.112087,-4737.318029,-77835.302597
118.401462,-2812.782580,-4145.153275,-77682.083497
118.404008,-6957.935855,-3701.029710,-76609.549800
118.406554,-20577.725188,3108.864956,-74004.825107
118.409100,7698.141797,-12879.583391,-78754.617194
118.411645,3404.947333,-15544.324782,-81512.560987
118.414191,10362.883188,10807.006753,-69561.471218
118.416737,12731.542202,9622.677246,-69101.813920
118.419283,6661.853478,4145.153275,-78448.178995
118.421829,-5773.606348,-7698.141797,-78601.398095
118.424375,23242.466579,-13915.871710,-75843.454302
118.426920,1628.453072,-1184.329507,-78141.740796
118.429466,-6809.894666,-2368.659014,-80593.246390
118.432012,27387.619854,-7254.018232,-81206.122788
118.434558,-2072.576638,-3404.947333,-76915.987999
118.437104,1036.288319,-1036.288319,-77375.645298
118.439650,11991.336260,-7550.100608,-76762.768900
118.442195,2664.741391,-4737.318029,-76762.768900
118.444741,7698.141797,2220.617826,-73851.606007
118.447291,10362.883188,-444.123565,-78294.959896
118.449841,0.000000,-1776.494261,-77988.521696
118.452390,11547.212695,-5033.400406,-75383.797003
118.454940,12435.459826,-6217.729913,-74924.139704
118.457490,12139.377449,444.123565,-76149.892501
118.460039,-1628.453072,2812.782580,-79367.493593
118.462589,18949.272115,-9918.759623,-75537.016103
118.465139,-24426.796086,-2368.659014,-76456.330700
118.467688,25463.084405,-10658.965565,-77988.521696
118.470238,4441.235652,9622.677246,-75843.454302
118.472788,-24722.878463,-6809.894666,-78141.740796
118.475337,8290.306550,-15840.407159,-76303.111601
118.477887,-1332.370696,3256.906145,-76303.111601
118.480437,-25759.166782,-592.164754,-74464.482406
118.482986,11103.089130,-6365.771101,-81512.560987
118.485536,-1628.453072,3552.988522,-75843.454302
118.488086,-5181.441594,-12435.459826,-82738.313784
118.490635,6957.935855,1480.411884,-75996.673402
118.493185,-2812.782580,2072.576638,-74617.701505
118.495735,-7994.224174,-5033.400406,-77988.521696
118.498284,-444.123565,1184.329507,-77222.426198
118.500834,-12879.583391,592.164754,-74158.044206
118.503384,0.000000,-2812.782580,-75383.797003
118.505933,-592.164754,-4737.318029,-80440.027290
118.508483,-5625.565159,-4441.235652,-77988.521696
118.511033,-6809.894666,-3552.988522,-77682.083497
118.513582,-6513.812290,1628.453072,-76149.892501
118.516132,-30200.402434,-8438.347739,-74770.920605
118.518681,22946.384202,3701.029710,-80899.684589
118.521231,-12583.501014,-4885.359217,-80593.246390
118.523781,9178.553681,-1036.288319,-86262.353075
118.526330,21614.013506,740.205942,-70787.224015
118.528880,2368.659014,-10214.842000,-73545.167808
118.531430,-3108.864956,740.205942,-73085.510509
118.533979,26943.496289,-296.082377,-74924.139704
118.536529,-17468.860231,3701.029710,-75690.235202
118.539079,-444.123565,1628.453072,-74004.825107
118.541628,15100.201217,-6957.935855,-79214.274493
118.544178,-3404.947333,1776.494261,-72779.072310
118.546728,4145.153275,-5181.441594,-75843.454302
118.549280,11695.253884,-6365.771101,-77528.864398
118.551832,2664.741391,444.123565,-78448.178995
118.554384,6809.894666,3849.070898,-76915.987999
118.556936,8290.306550,-6069.688724,-76915.987999
118.559488,7254.018232,-7846.182985,-78754.617194
118.562040,11251.130318,-592.164754,-77528.864398
118.564592,8142.265362,3849.070898,-77069.207099
118.567144,14508.036463,-6069.688724,-73851.606007
118.569696,-26203.290347,-14952.160028,-80440.027290
118.572248,19985.560434,-3849.070898,-80746.465489
118.574800,-17912.983796,5329.482782,-77222.426198
118.577351,740.205942,148.041188,-80133.589091
118.579903,5773.606348,-148.041188,-71706.538613
118.582455,-27979.784608,-12287.418637,-80286.808190
118.585007,-13767.830521,-3404.947333,-76149.892501
118.587559,15248.242405,-1332.370696,-76762.768900
118.590111,-17616.901420,740.205942,-74924.139704
118.592663,7550.100608,-10214.842000,-80286.808190
118.595215,-1924.535449,5921.647536,-74004.825107
118.597767,-11251.130318,-4737.318029,-76609.549800
118.600319,2812.782580,-9178.553681,-78448.178995
118.602871,-8290.306550,3108.864956,-80133.589091
118.605423,-5477.523971,-3108.864956,-79673.931792
118.607975,3701.029710,-4885.359217,-76456.330700
118.610527,-5033.400406,-5329.482782,-77375.645298
118.613079,-8438.347739,-3256.906145,-77222.426198
118.615631,2072.576638,-4737.318029,-76915.987999
118.618183,-13767.830521,4885.359217,-75996.673402
118.620735,-9326.594869,-12583.501014,-79367.493593
118.623287,20133.601622,-11251.130318,-84883.381178
118.625839,-9030.512492,-3404.947333,-75843.454302
118.628391,19097.313304,5477.523971,-75230.577904
118.630943,32421.020260,-888.247130,-73085.510509
118.633495,-5625.565159,-8290.306550,-73238.729609
118.636047,2368.659014,1924.535449,-72166.195912
118.638599,26351.331535,-2368.659014,-76915.987999
118.641151,-17616.901420,3404.947333,-75690.235202
118.643703,16876.695478,-2220.617826,-78754.617194
118.646255,11695.253884,-7402.059420,-81665.780087
118.648807,-6365.771101,-148.041188,-77988.521696
118.651359,5329.482782,-7698.141797,-76609.549800
118.653914,15692.365970,-10214.842000,-79520.712692
118.656468,6069.688724,-1628.453072,-78601.398095
118.659022,3108.864956,6069.688724,-76762.768900
118.661576,9030.512492,-3997.112087,-75843.454302
118.664131,11547.212695,-9178.553681,-76609.549800
118.666685,10066.800811,-2368.659014,-76915.987999
118.669239,12287.418637,3256.906145,-76915.987999
118.671793,10658.965565,-4441.235652,-76456.330700
118.674348,-28275.866984,-14359.995275,-76456.330700
118.676902,22650.301825,-13471.748144,-83657.628382
118.679456,-10066.800811,11103.089130,-73851.606007
118.682010,-10214.842000,-6513.812290,-79827.150892
118.684564,9326.594869,-7994.224174,-75843.454302
118.687119,-25759.166782,-148.041188,-75690.235202
118.689673,-12287.418637,-6069.688724,-78754.617194
118.692227,15248.242405,-444.123565,-77528.864398
118.694781,-18801.230927,-444.123565,-77375.645298
118.697336,7550.100608,-9178.553681,-79367.493593
118.699890,11399.171507,-1036.288319,-76915.987999
118.702444,-2220.617826,-1036.288319,-72625.853210
118.704998,-9474.636058,-4145.153275,-80899.684589
118.707553,-8438.347739,2072.576638,-74311.263306
118.710107,2960.823768,-3256.906145,-76456.330700
118.712661,-6365.771101,-592.164754,-75537.016103
118.715215,-2960.823768,-6069.688724,-78754.617194
118.717769,-7402.059420,-5033.400406,-79673.931792
118.720324,-8142.265362,296.082377,-77528.864398
118.722878,7994.224174,-12731.542202,-76762.768900
118.725432,-5921.647536,-11399.171507,-77988.521696
118.727986,7550.100608,7550.100608,-70940.443115
118.730541,10955.047942,3849.070898,-73851.606007
118.733097,3997.112087,5181.441594,-77375.645298
118.735653,4441.235652,-9030.512492,-76762.768900
118.738210,15692.365970,-26203.290347,-87641.324971
118.740766,-16284.530724,8142.265362,-70327.566716
118.743323,28127.825796,444.123565,-74617.701505
118.745879,20429.683999,-5181.441594,-79061.055394
118.748436,-1776.494261,-3997.112087,-78754.617194
118.750992,4737.318029,-296.082377,-74464.482406
118.753549,11251.130318,-6809.894666,-78294.959896
118.756105,740.205942,-2072.576638,-75690.235202
118.758661,7402.059420,1036.288319,-74617.701505
118.761218,13175.665768,1036.288319,-77222.426198
118.763774,4589.276840,-1628.453072,-77069.207099
118.766331,6069.688724,-1924.535449,-72932.291410
118.768887,11251.130318,-4145.153275,-74158.044206
118.771444,14804.118840,2960.823768,-77835.302597
118.774000,1628.453072,-1184.329507,-74004.825107
118.776556,-17764.942608,-16284.530724,-81052.903688
118.779113,25463.084405,592.164754,-75077.358804
118.781669,-21465.972318,3108.864956,-75843.454302
118.784226,6809.894666,-2220.617826,-84117.285680
118.786782,-1184.329507,1036.288319,-71859.757712
118.789339,-28719.990550,-19245.354492,-82738.313784
118.791895,-12583.501014,-5477.523971,-81512.560987
118.794452,17024.736666,-1332.370696,-79673.931792
118.797008,-21317.931130,2072.576638,-74464.482406
118.799564,3701.029710,-10362.883188,-80440.027290
118.802121,5181.441594,4441.235652,-71400.100414
118.804677,-8734.430116,-4145.153275,-78601.398095
118.807234,-3108.864956,-5773.606348,-79367.493593
118.809790,-9326.594869,5329.482782,-74464.482406
118.812347,-2812.782580,-444.123565,-75690.235202
118.814903,2664.741391,-4145.153275,-76915.987999
118.817459,-10362.883188,-4145.153275,-75843.454302
118.820016,-6069.688724,-4441.235652,-77682.083497
118.822572,-11695.253884,1480.411884,-79061.055394
118.825129,8882.471304,-4885.359217,-75077.358804
118.827685,-19245.354492,-10807.006753,-74770.920605
118.830242,15544.324782,9918.759623,-73391.948708
118.832798,-4293.194464,-7698.141797,-81052.903688
118.835356,2960.823768,3256.906145,-82891.532884
118.837913,7550.100608,-7105.977043,-78294.959896
118.840471,15544.324782,-27239.578666,-83657.628382
118.843029,-12879.583391,6809.894666,-71859.757712
118.845586,27239.578666,0.000000,-76762.768900
118.848144,4737.318029,-296.082377,-76149.892501
118.850701,-740.205942,2664.741391,-75537.016103
118.853259,14063.912898,-6513.812290,-77375.645298
118.855817,3849.070898,-740.205942,-74004.825107
118.858374,-888.247130,-1924.535449,-75537.016103
118.860932,5477.523971,1332.370696,-75383.797003
118.863489,12435.459826,-592.164754,-79061.055394
118.866047,4589.276840,-2220.617826,-76609.549800
118.868605,9326.594869,-1628.453072,-73238.729609
118.871162,10658.965565,-6069.688724,-76915.987999
118.873720,17024.736666,2220.617826,-77988.521696
118.876278,-6069.688724,888.247130,-75077.358804
118.878835,1924.535449,-20429.683999,-79520.712692
118.881393,10807.006753,9770.718434,-72166.195912
118.883950,-16876.695478,6957.935855,-76149.892501
118.886508,-1332.370696,-3108.864956,-83197.971083
118.889066,8586.388927,-3256.906145,-73391.948708
118.891623,-36270.091158,-11547.212695,-81206.122788
118.894181,5921.647536,-1924.535449,-77375.645298
118.896738,5477.523971,1036.288319,-77528.864398
118.899296,-19985.560434,-2368.659014,-73698.386908
118.901854,10362.883188,-2664.741391,-77069.207099
118.904411,-5921.647536,5181.441594,-72319.415011
118.906969,-11991.336260,-2516.700203,-75383.797003
118.909526,444.123565,-10066.800811,-79367.493593
118.912084,-3552.988522,3997.112087,-75843.454302
118.914642,-11399.171507,-1332.370696,-79061.055394
118.917199,2960.823768,-6661.853478,-77835.302597
118.919757,-6661.853478,592.164754,-73085.510509
118.922315,-8882.471304,-4885.359217,-77222.426198
118.924872,-10658.965565,2368.659014,-77528.864398
118.927430,13323.706956,-4885.359217,-75537.016103
118.929987,-1184.329507,-12731.542202,-76915.987999
118.932545,7846.182985,7105.977043,-72625.853210
118.935103,13027.624579,8734.430116,-70480.785816
118.937662,4589.276840,6217.729913,-76915.987999
118.940221,2812.782580,-8290.306550,-76915.987999
118.942780,19393.395680,-24574.837274,-85496.257577
118.945339,-15396.283594,5921.647536,-72472.634111
118.947898,25759.166782,-444.123565,-77528.864398
118.950457,13767.830521,740.205942,-75843.454302
118.953016,-1776.494261,-2664.741391,-76149.892501
118.955575,5033.400406,-3997.112087,-76915.987999
118.958135,5773.606348,-2220.617826,-76915.987999
118.960694,-1776.494261,-4737.318029,-79061.055394
118.963253,11399.171507,-2368.659014,-77069.207099
118.965812,10362.883188,-2220.617826,-80133.589091
118.968371,3404.947333,-4589.276840,-79673.931792
118.970930,14656.077652,-3256.906145,-75077.358804
118.973489,10362.883188,-3404.947333,-77069.207099
118.976048,-5033.400406,0.000000,-76303.111601
118.978607,19541.436869,-10955.047942,-79367.493593
118.981166,-16136.489536,6661.853478,-73698.386908
118.983726,10066.800811,-9474.636058,-78601.398095
118.986285,-444.123565,9326.594869,-74924.139704
118.988844,-21910.095883,-5033.400406,-77069.207099
118.991403,15396.283594,-9474.636058,-76456.330700
118.993962,-20577.725188,2220.617826,-72319.415011
118.996521,-21317.931130,-6809.894666,-81512.560987
118.999080,4293.194464,-5773.606348,-80440.027290
119.001639,8586.388927,5033.400406,-75996.673402
119.004198,-11103.089130,-10362.883188,-81359.341888
119.006758,2072.576638,-3701.029710,-75383.797003
119.009317,3552.988522,1184.329507,-72012.976812
119.011876,-15100.201217,-5773.606348,-82278.656485
119.014435,2368.659014,148.041188,-76762.768900
119.016994,-4589.276840,1628.453072,-74464.482406
119.019553,-4145.153275,-6661.853478,-77528.864398
119.022112,-15692.365970,-7105.977043,-79827.150892
119.024671,-4441.235652,2812.782580,-77528.864398
119.027230,7402.059420,-2368.659014,-75537.016103
119.029789,-26055.249158,-11843.295072,-77528.864398
119.032349,19689.478057,5329.482782,-79214.274493
119.034908,-12731.542202,-7550.100608,-81972.218286
119.037467,10955.047942,-1332.370696,-82278.656485
119.039993,28423.908173,5477.523971,-70174.347617
119.042520,-4885.359217,-9178.553681,-71400.100414
119.045046,-11399.171507,1776.494261,-75537.016103
119.047573,30792.567187,2812.782580,-72932.291410
119.050099,-4293.194464,2072.576638,-75843.454302
119.052625,3997.112087,296.082377,-76149.892501
119.055152,12435.459826,-4145.153275,-78141.740796
119.057678,444.123565,-4589.276840,-77069.207099
119.060205,-1184.329507,-4589.276840,-76149.892501
119.062731,8290.306550,-11547.212695,-82431.875585
119.065258,7402.059420,-5033.400406,-81665.780087
119.067784,2960.823768,-2812.782580,-78601.398095
119.070311,18061.024985,-4737.318029,-75996.673402
119.072837,9622.677246,-4589.276840,-79520.712692
119.075364,5181.441594,148.041188,-77988.521696
119.077890,20725.766376,-7846.182985,-77222.426198
119.080416,-31384.731941,-9474.636058,-79980.369991
119.082943,22058.137072,-4145.153275,-82278.656485
119.085469,-10807.006753,5773.606348,-75077.358804
119.087996,-7105.977043,-4737.318029,-81359.341888
119.090522,6365.771101,-7846.182985,-77528.864398
119.093049,-18505.148550,-592.164754,-75077.358804
119.095575,-18061.024985,-6661.853478,-78907.836294
119.098102,17320.819043,1776.494261,-77528.864398
119.100628,-12731.542202,592.164754,-76609.549800
119.103155,444.123565,-9622.677246,-79061.055394
119.105681,444.123565,4885.359217,-73238.729609
119.108208,-2072.576638,-2812.782580,-74004.825107
119.110734,-1776.494261,-10066.800811,-79214.274493
119.113260,3256.906145,-3108.864956,-77682.083497
119.115787,-6069.688724,740.205942,-75537.016103
119.118313,-5329.482782,-4737.318029,-76915.987999
119.120840,-13175.665768,-3849.070898,-78141.740796
119.123366,-2220.617826,-1036.288319,-79520.712692
119.125893,3701.029710,-2368.659014,-76915.987999
119.128419,-18505.148550,-8438.347739,-75230.577904
119.130946,13471.748144,1332.370696,-79214.274493
119.133472,-4145.153275,-11843.295072,-80440.027290
119.135999,-1628.453072,1480.411884,-84883.381178
119.138525,5181.441594,-8586.388927,-79520.712692
119.141059,20133.601622,-26351.331535,-82278.656485
119.143594,-21910.095883,6957.935855,-73085.510509
119.146128,34345.555709,296.082377,-75843.454302
119.148662,6217.729913,0.000000,-74464.482406
119.151197,-5921.647536,-296.082377,-78141.740796
119.153731,13619.789333,-6809.894666,-77835.302597
119.156265,6661.853478,-3849.070898,-75077.358804
119.158800,-1628.453072,1184.329507,-74617.701505
119.161334,-1036.288319,7698.141797,-72472.634111
119.163868,10807.006753,-1628.453072,-79061.055394
119.166403,12435.459826,-3701.029710,-77222.426198
119.168937,4589.276840,-4441.235652,-77222.426198
119.171471,18653.189738,2516.700203,-77375.645298
119.174006,3849.070898,-7698.141797,-76762.768900
119.176540,13175.665768,-11399.171507,-77069.207099
119.179074,-12139.377449,13915.871710,-73238.729609
119.181609,-9474.636058,-592.164754,-75230.577904
119.184143,7550.100608,148.041188,-82431.875585
119.186677,-4589.276840,-1184.329507,-75077.358804
119.189212,-17320.819043,-21169.889941,-80440.027290
119.191746,15100.201217,4589.276840,-71859.757712
119.194280,-26499.372724,2220.617826,-74464.482406
119.196815,592.164754,-9474.636058,-84423.723880
119.199349,8438.347739,7550.100608,-72472.634111
119.201883,-7254.018232,-8734.430116,-81359.341888
119.204418,2072.576638,-6513.812290,-75996.673402
119.206952,-2368.659014,-1776.494261,-78294.959896
119.209486,-10807.006753,592.164754,-77069.207099
119.212021,-1332.370696,1332.370696,-77069.207099
119.214555,-5181.441594,740.205942,-74158.044206
119.217089,-10658.965565,-4885.359217,-77835.302597
119.219624,-5477.523971,-3997.112087,-77682.083497
119.222158,-16136.489536,7105.977043,-77375.645298
119.224692,7994.224174,-14804.118840,-79673.931792
119.227227,23538.548956,-14359.995275,-82738.313784
119.229761,-12879.583391,-3552.988522,-75230.577904
119.232295,19393.395680,3849.070898,-79673.931792
119.234830,17468.860231,10510.924376,-72779.072310
119.237364,-8734.430116,-8142.265362,-74924.139704
119.239898,31680.814318,-19689.478057,-79061.055394
119.242439,-10214.842000,3404.947333,-74464.482406
119.244979,6957.935855,-2072.576638,-83504.409282
119.247519,19245.354492,-2516.700203,-79214.274493
119.250060,10807.006753,-3701.029710,-75537.016103
119.252600,-5181.441594,-296.082377,-77222.426198
119.255140,2812.782580,-3849.070898,-76915.987999
119.257681,8438.347739,-5773.606348,-76609.549800
119.260221,11547.212695,-592.164754,-74004.825107
119.262761,7402.059420,3256.906145,-74004.825107
119.265302,14804.118840,-3701.029710,-76303.111601
119.267842,9918.759623,-1184.329507,-74311.263306
119.270382,4885.359217,2220.617826,-76149.892501
119.272923,22946.384202,-7550.100608,-74004.825107
119.275463,-16876.695478,-5181.441594,-77835.302597
119.278003,5477.523971,-6661.853478,-81972.218286
119.280544,-3256.906145,10066.800811,-74617.701505
119.283084,-12583.501014,-2960.823768,-79673.931792
119.285624,9622.677246,-7402.059420,-75230.577904
119.288165,-23390.507767,-3997.112087,-75230.577904
119.290705,-13619.789333,-1776.494261,-78448.178995
119.293245,7402.059420,1924.535449,-78141.740796
119.295786,-10658.965565,3256.906145,-76303.111601
119.298326,-1480.411884,-9770.718434,-80899.684589
119.300866,2812.782580,-296.082377,-74158.044206
119.303407,-296.082377,-1628.453072,-74004.825107
119.305947,-9474.636058,-6365.771101,-79980.369991
119.308487,-7105.977043,2220.617826,-77222.426198
119.311028,-2812.782580,-148.041188,-77222.426198
119.313568,-2664.741391,-7105.977043,-75843.454302
119.316108,-12435.459826,-4293.194464,-78141.740796
119.318649,-14952.160028,9326.594869,-75537.016103
119.321189,8290.306550,-11251.130318,-79827.150892
119.323729,-6661.853478,-15248.242405,-77682.083497
119.326270,4885.359217,14359.995275,-67416.403824
119.328810,9178.553681,-2960.823768,-75690.235202
119.331350,4293.194464,2812.782580,-80746.465489
119.333891,6365.771101,-4885.359217,-79061.055394
119.336431,14508.036463,-25611.125593,-85802.695776
119.338971,-10510.924376,6069.688724,-71246.881314
119.341512,26943.496289,-2960.823768,-80899.684589
119.344057,18209.066173,-4441.235652,-79367.493593
119.346603,-296.082377,-1480.411884,-77988.521696
119.349148,1332.370696,1332.370696,-72625.853210
119.351694,13323.706956,-6217.729913,-76303.111601
119.354239,3108.864956,1036.288319,-73545.167808
119.356785,3552.988522,1480.411884,-75077.358804
119.359330,18505.148550,-3404.947333,-78294.959896
119.361875,7402.059420,-3997.112087,-77069.207099
119.364421,740.205942,2664.741391,-73238.729609
119.366966,9030.512492,-296.082377,-79520.712692
119.369512,18505.148550,-12583.501014,-81052.903688
119.372057,-30940.608376,-12583.501014,-81512.560987
119.374603,28571.949361,-4293.194464,-80133.589091
119.377148,-24278.754898,8142.265362,-75843.454302
119.379694,2516.700203,-3256.906145,-81359.341888
119.382239,8438.347739,-740.205942,-70480.785816
119.384784,-34049.473332,-14656.077652,-80440.027290
119.387330,-15100.201217,-3997.112087,-77375.645298
119.389875,18801.230927,-592.164754,-80286.808190
119.392421,-19245.354492,1480.411884,-79673.931792
119.394966,3108.864956,-7994.224174,-78601.398095
119.397512,0.000000,0.000000,-74464.482406
119.400057,-1480.411884,-2220.617826,-75843.454302
119.402603,-13619.789333,-6661.853478,-80899.684589
119.405148,-1332.370696,-1776.494261,-79214.274493
119.407694,-296.082377,4145.153275,-73545.167808
119.410239,-7698.141797,-3108.864956,-75077.358804
119.412784,-17616.901420,-4589.276840,-79214.274493
119.415330,-5033.400406,8438.347739,-77835.302597
119.417875,3552.988522,-13175.665768,-79520.712692
119.420421,0.000000,-15544.324782,-77375.645298
119.422966,1628.453072,11103.089130,-68335.718422
119.425512,10214.842000,-2368.659014,-75077.358804
119.428057,5773.606348,5033.400406,-78448.178995
119.430603,9918.759623,-4885.359217,-76149.892501
119.433148,21762.054695,-21317.931130,-79827.150892
119.435694,-9622.677246,3701.029710,-73545.167808
119.438239,17024.736666,740.205942,-79827.150892
119.440784,13767.830521,-3849.070898,-81359.341888
119.443330,-2072.576638,-3997.112087,-78754.617194
119.445880,8586.388927,-1184.329507,-72012.976812
119.448430,3108.864956,-5625.565159,-77835.302597
119.450980,2072.576638,-3701.029710,-78141.740796
119.453531,13027.624579,-888.247130,-76149.892501
119.456081,12879.583391,888.247130,-76303.111601
119.458631,12583.501014,-5181.441594,-76303.111601
119.461181,12583.501014,2516.700203,-74770.920605
119.463732,0.000000,-1776.494261,-76303.111601
119.466282,21910.095883,-12139.377449,-76915.987999
119.468832,-14804.118840,3404.947333,-75690.235202
119.471382,6513.812290,-12435.459826,-83810.847481
119.473932,-3256.906145,9326.594869,-75383.797003
119.476483,-17764.942608,-7105.977043,-80286.808190
119.479033,888.247130,-21910.095883,-80440.027290
119.481583,2960.823768,5625.565159,-74464.482406
119.484133,-33605.349767,2664.741391,-73698.386908
119.486683,10214.842000,-6365.771101,-83504.409282
119.489234,6217.729913,4441.235652,-74770.920605
119.491784,-9326.594869,-7698.141797,-79214.274493
119.494334,10214.842000,-4145.153275,-75996.673402
119.496884,-5921.647536,3849.070898,-70021.128517
119.499434,-9622.677246,-8734.430116,-82278.656485
119.501985,296.082377,-4589.276840,-77988.521696
119.504535,-3849.070898,2220.617826,-72472.634111
119.507085,-15248.242405,-1628.453072,-73391.948708
119.509635,-6069.688724,-4885.359217,-79061.055394
119.512185,5773.606348,7402.059420,-75996.673402
119.514736,-28423.908173,-10362.883188,-78907.836294
119.517286,25759.166782,-8290.306550,-83044.751983
119.519836,-12583.501014,-6217.729913,-77375.645298
119.522386,15840.407159,-1332.370696,-83044.751983
119.524936,24722.878463,8290.306550,-75383.797003
119.527487,-2664.741391,-8882.471304,-74464.482406
119.530037,5625.565159,-2220.617826,-72166.195912
119.532587,21021.848753,2368.659014,-74464.482406
119.535137,-8438.347739,2516.700203,-79061.055394
119.537688,13175.665768,-592.164754,-76762.768900
119.540238,8882.471304,-3552.988522,-77528.864398
119.542788,-1628.453072,-4293.194464,-76762.768900
119.545338,-148.041188,-4293.194464,-77988.521696
119.547892,4737.318029,-888.247130,-76762.768900
119.550446,11399.171507,-3997.112087,-80286.808190
119.553001,10362.883188,-2812.782580,-76762.768900
119.555555,17468.860231,0.000000,-76762.768900
119.558109,-3404.947333,-2220.617826,-78601.398095
119.560663,25463.084405,-14211.954086,-78754.617194
119.563217,-21021.848753,-6513.812290,-78141.740796
119.565771,10362.883188,-3552.988522,-83197.971083
119.568325,-12583.501014,10510.924376,-75690.235202
119.570880,-6513.812290,-3849.070898,-78907.836294
119.573434,9770.718434,-11695.253884,-76762.768900
119.575988,-17024.736666,3404.947333,-71706.538613
119.578542,-15544.324782,-5773.606348,-77988.521696
119.581096,10066.800811,1924.535449,-77528.864398
119.583650,-5773.606348,1036.288319,-79673.931792
119.586205,-2072.576638,-7994.224174,-78907.836294
119.588759,-148.041188,-888.247130,-76149.892501
119.591313,-2960.823768,1480.411884,-72319.415011
119.593867,-5329.482782,-5625.565159,-79827.150892
119.596421,-10362.883188,-1036.288319,-78754.617194
119.598975,148.041188,-3256.906145,-76915.987999
119.601529,-12583.501014,-1924.535449,-72932.291410
119.604084,-11843.295072,-1184.329507,-77835.302597
119.606638,8734.430116,3108.864956,-77682.083497
119.609192,-20577.725188,-9770.718434,-76149.892501
119.611746,16136.489536,-4441.235652,-80593.246390
119.614300,-444.123565,-9622.677246,-78754.617194
119.616854,8290.306550,1036.288319,-82278.656485
119.619408,14656.077652,-2220.617826,-75843.454302
119.621963,8290.306550,-13619.789333,-78448.178995
119.624517,0.000000,2960.823768,-71093.662214
119.627071,16580.613101,-1480.411884,-75843.454302
119.629625,1036.288319,3256.906145,-77222.426198
119.632179,12435.459826,3552.988522,-72779.072310
119.634733,11695.253884,-8438.347739,-77835.302597
119.637288,-444.123565,-2516.700203,-75383.797003
119.639842,1480.411884,-2516.700203,-75690.235202
119.642396,8290.306550,888.247130,-75690.235202
119.644950,13027.624579,-1036.288319,-77682.083497
119.647504,9770.718434,-2960.823768,-79061.055394
119.650061,8882.471304,-444.123565,-76762.768900
119.652618,13915.871710,-1332.370696,-77835.302597
119.655174,7550.100608,-10807.006753,-77682.083497
119.657731,-18061.024985,-14656.077652,-81512.560987
119.660288,20133.601622,-1776.494261,-78907.836294
119.662845,-22206.178260,4589.276840,-74770.920605
119.665401,-9918.759623,-6957.935855,-80899.684589
119.667958,9918.759623,-8734.430116,-76303.111601
119.670515,-23982.672521,-888.247130,-74617.701505
119.673072,-8734.430116,-5773.606348,-78754.617194
119.675629,11695.253884,296.082377,-78294.959896
119.678185,-15840.407159,1628.453072,-79214.274493
119.680742,1776.494261,-8438.347739,-80746.465489
119.683299,3701.029710,148.041188,-71859.757712
119.685856,-4589.276840,-3404.947333,-74004.825107
119.688412,-3404.947333,-1628.453072,-79827.150892
119.690969,-8142.265362,-1036.288319,-76915.987999
119.693526,-2960.823768,-3997.112087,-77069.207099
119.696083,-11399.171507,-5033.400406,-75077.358804
119.698639,-9178.553681,-1628.453072,-78448.178995
119.701196,4737.318029,296.082377,-76915.987999
119.703753,-17616.901420,-10066.800811,-76915.987999
119.706310,11251.130318,2368.659014,-77375.645298
119.708866,888.247130,-10807.006753,-79214.274493
119.711423,1480.411884,444.123565,-83810.847481
119.713980,19245.354492,-3256.906145,-77222.426198
119.716537,7254.018232,-14656.077652,-76915.987999
119.719094,-4885.359217,3404.947333,-72779.072310
119.721650,21021.848753,-444.123565,-75843.454302
119.724207,296.082377,1332.370696,-77222.426198
119.726764,6809.894666,1628.453072,-75383.797003
119.729321,5625.565159,-5921.647536,-78907.836294
119.731877,-1036.288319,-3701.029710,-77988.521696
119.734434,444.123565,-4441.235652,-80286.808190
119.736991,16876.695478,-2812.782580,-76762.768900
119.739548,11843.295072,-3997.112087,-78141.740796
119.742104,7846.182985,-2664.741391,-76149.892501
119.744661,20281.642811,2368.659014,-74924.139704
119.747218,-8734.430116,296.082377,-76915.987999
119.749775,22650.301825,-11695.253884,-75383.797003
119.752334,-7105.977043,4145.153275,-72625.853210
119.754894,1332.370696,-10510.924376,-80593.246390
119.757453,12731.542202,6069.688724,-77069.207099
119.760012,-20281.642811,-4145.153275,-79367.493593
119.762572,6217.729913,-19985.560434,-79214.274493
119.765131,-3256.906145,4737.318029,-74004.825107
119.767691,-22058.137072,592.164754,-73085.510509
119.770250,2960.823768,-7105.977043,-82431.875585
119.772809,2960.823768,4589.276840,-74924.139704
119.775369,-8882.471304,-8290.306550,-81665.780087
119.777928,3997.112087,-8438.347739,-77835.302597
119.780488,-592.164754,-6809.894666,-79367.493593
119.783047,-10510.924376,0.000000,-79520.712692
119.785607,-7105.977043,-3404.947333,-80746.465489
119.788166,-3997.112087,-4145.153275,-74924.139704
119.790725,-7402.059420,888.247130,-72625.853210
119.793285,-21762.054695,3404.947333,-77069.207099
119.795844,17912.983796,-8438.347739,-77988.521696
119.798404,-13027.624579,-6661.853478,-76303.111601
119.800963,3849.070898,8734.430116,-70327.566716
119.803522,23686.590144,4885.359217,-74004.825107
119.806082,10214.842000,7846.182985,-75383.797003
119.808641,-3701.029710,-10214.842000,-77375.645298
119.811201,21910.095883,-16876.695478,-81052.903688
119.813760,-9918.759623,4441.235652,-72319.415011
119.816319,19393.395680,-6957.935855,-82585.094684
119.818879,13323.706956,3108.864956,-75996.673402
119.821438,-2664.741391,-3108.864956,-79980.369991
119.823998,1924.535449,-6513.812290,-78601.398095
119.826557,2812.782580,-4589.276840,-76303.111601
119.829117,5181.441594,-5329.482782,-79827.150892
119.831676,9474.636058,-592.164754,-75537.016103
119.834235,17468.860231,-2960.823768,-77988.521696
119.836795,10214.842000,2072.576638,-75230.577904
119.839354,5625.565159,1480.411884,-77222.426198
119.841914,17764.942608,-12435.459826,-80440.027290
119.844473,-26499.372724,-18949.272115,-81818.999186
119.847032,32421.020260,1332.370696,-77682.083497
119.849592,-8290.306550,12139.377449,-74617.701505
119.852151,-14508.036463,-6513.812290,-80133.589091
119.854712,9326.594869,-2220.617826,-71553.319513
119.857273,-22206.178260,-7105.977043,-75230.577904
119.859834,-8734.430116,-3256.906145,-78448.178995
119.862395,2960.823768,2664.741391,-78601.398095
119.864956,-12287.418637,-4145.153275,-78907.836294
119.867517,296.082377,-5033.400406,-78601.398095
119.870078,296.082377,444.123565,-73698.386908
119.872639,-2220.617826,-1776.494261,-70634.004916
119.875200,-2516.700203,-5773.606348,-81359.341888
119.877761,-11399.171507,1480.411884,-76609.549800
119.880322,-5773.606348,-3701.029710,-78754.617194
119.882883,-7550.100608,-3701.029710,-73698.386908
119.885444,-17468.860231,888.247130,-78294.959896
119.888005,12731.542202,-7105.977043,-79214.274493
119.890566,-15396.283594,-10807.006753,-76762.768900
119.893127,3108.864956,11991.336260,-72779.072310
119.895688,15988.448347,-740.205942,-73391.948708
119.898249,5033.400406,2812.782580,-79980.369991
119.900810,2812.782580,-8586.388927,-80746.465489
119.903371,16876.695478,-19689.478057,-82431.875585
119.905932,-10955.047942,6661.853478,-71400.100414
119.908493,28275.866984,-4145.153275,-77069.207099
119.911054,3701.029710,1924.535449,-73238.729609
119.913615,1332.370696,-444.123565,-76762.768900
119.916176,12139.377449,-3997.112087,-74311.263306
119.918737,6809.894666,-5329.482782,-77682.083497
119.921298,-148.041188,-1924.535449,-76149.892501
119.923859,13767.830521,-2812.782580,-78601.398095
119.926419,16728.654289,-1628.453072,-75537.016103
119.928980,6069.688724,-1184.329507,-77988.521696
119.931541,12731.542202,1480.411884,-78448.178995
119.934102,10362.883188,-10362.883188,-80440.027290
119.936663,-9918.759623,-21614.013506,-79827.150892
119.939224,18061.024985,9918.759623,-73085.510509
119.941785,-9030.512492,11251.130318,-73698.386908
119.944346,-10658.965565,-444.123565,-80593.246390
119.946907,5773.606348,-1480.411884,-72625.853210
119.949468,-22354.219448,-15248.242405,-79214.274493
119.952029,148.041188,2516.700203,-73851.606007
119.954590,-7550.100608,4885.359217,-76456.330700
119.957153,-12879.583391,-7105.977043,-79214.274493
119.959716,7105.977043,-2812.782580,-80133.589091
119.962278,2220.617826,5181.441594,-70327.566716
119.964841,-5773.606348,2960.823768,-73085.510509
119.967404,-13323.706956,-5625.565159,-78601.398095
119.969967,-7254.018232,-2368.659014,-80286.808190
119.972529,-2812.782580,740.205942,-74464.482406
119.975092,-15396.283594,-1628.453072,-73085.510509
119.977655,-6661.853478,2812.782580,-76762.768900
119.980218,4441.235652,-10362.883188,-79827.150892
119.982780,-592.164754,-12583.501014,-79214.274493
119.985343,740.205942,9918.759623,-69255.033019
119.987906,13471.748144,5625.565159,-75843.454302
119.990469,14804.118840,4145.153275,-75996.673402
119.993031,-3701.029710,-7846.182985,-76762.768900
119.995594,25315.043216,-12139.377449,-76762.768900
119.998157,-12139.377449,3108.864956,-75230.577904
120.000720,13471.748144,-3404.947333,-81206.122788
120.003282,18357.107362,-444.123565,-77988.521696
120.005845,-2960.823768,-4885.359217,-80593.246390
120.008408,-1184.329507,-3849.070898,-76303.111601
120.010971,10362.883188,-7105.977043,-78907.836294
120.013533,7254.018232,-1924.535449,-78141.740796
120.016096,3256.906145,-1184.329507,-77222.426198
120.018659,18061.024985,-592.164754,-75690.235202
120.021222,18061.024985,5625.565159,-76762.768900
120.023784,-10955.047942,0.000000,-75537.016103
120.026347,27979.784608,-15544.324782,-76609.549800
120.028910,-14952.160028,6661.853478,-71553.319513
120.031473,2072.576638,-7550.100608,-81206.122788
120.034035,15544.324782,6809.894666,-78294.959896
120.036598,-20281.642811,-3701.029710,-77528.864398
120.039161,0.000000,-19985.560434,-79367.493593
