#time,accel_x,accel_y,accel_z
1870.519273,-21465.972318,15248.242405,-70327.566716
1870.522110,17172.777854,-19393.395680,-88867.077768
1870.524948,-18949.272115,11695.253884,-65577.774629
1870.527786,21465.972318,-9178.553681,-76762.768900
1870.530623,-10510.924376,1776.494261,-74770.920605
1870.533461,12435.459826,-6069.688724,-77528.864398
1870.536298,-10214.842000,-4885.359217,-81512.560987
1870.539136,18949.272115,-13175.665768,-75996.673402
1870.541974,-15988.448347,-6217.729913,-77528.864398
1870.544811,3404.947333,-2368.659014,-77682.083497
1870.547649,-20577.725188,-6069.688724,-75537.016103
1870.550487,12583.501014,-15840.407159,-77375.645298
1870.553324,-4293.194464,-5625.565159,-79980.369991
1870.556162,-44856.480085,31384.731941,-66343.870127
1870.558959,52406.580694,6365.771101,-86875.229473
1870.561756,-35677.926404,21021.848753,-69101.813920
1870.564553,22354.219448,-11843.295072,-78141.740796
1870.567350,-11695.253884,-3997.112087,-74311.263306
1870.570147,24278.754898,-18061.024985,-79673.931792
1870.572943,-5921.647536,-2072.576638,-76303.111601
1870.575740,40267.203245,-1480.411884,-78141.740796
1870.578537,-25315.043216,7846.182985,-74617.701505
1870.581334,-11399.171507,1036.288319,-81512.560987
1870.584131,5625.565159,7698.141797,-76303.111601
1870.586928,-21169.889941,8734.430116,-71859.757712
1870.589725,12583.501014,-17320.819043,-81359.341888
1870.592522,-24278.754898,1184.329507,-76915.987999
1870.595319,24130.713709,-20873.807564,-82431.875585
1870.598116,-33013.185013,18801.230927,-67569.622924
1870.600913,23390.507767,-13323.706956,-81665.780087
1870.603710,-32124.937883,19393.395680,-64198.802732
1870.606506,27535.661042,-7105.977043,-82891.532884
1870.609303,-3849.070898,7550.100608,-81512.560987
1870.612100,24722.878463,3256.906145,-77835.302597
1870.614897,-10510.924376,6661.853478,-77988.521696
1870.617694,13471.748144,-3997.112087,-74311.263306
1870.620491,-28275.866984,-4145.153275,-77988.521696
1870.623288,13619.789333,-2960.823768,-76762.768900
1870.626085,-8142.265362,-888.247130,-76149.892501
1870.628882,5329.482782,-2072.576638,-79827.150892
1870.631679,-9474.636058,11251.130318,-76915.987999
1870.634476,4589.276840,5329.482782,-77988.521696
1870.637272,3997.112087,-13175.665768,-84883.381178
1870.640069,-30052.361245,17912.983796,-64811.679131
1870.642866,10510.924376,-36270.091158,-82278.656485
1870.645663,35974.008781,-5773.606348,-69867.909418
1870.648460,-2960.823768,-3552.988522,-66037.431928
1870.651257,21762.054695,25167.002028,-65424.555529
1870.654054,9918.759623,-1332.370696,-76915.987999
1870.656851,-36862.255912,-5181.441594,-74924.139704
1870.659648,46781.015534,-3849.070898,-77528.864398
1870.662445,-52110.498317,740.205942,-76915.987999
1870.665242,43524.109390,3404.947333,-69101.813920
1870.668039,27979.784608,-28868.031738,-80746.465489
1870.670639,-37750.503042,9474.636058,-59449.010645
1870.673239,3108.864956,-20281.642811,-83044.751983
1870.675840,-25315.043216,19097.313304,-71093.662214
1870.678440,9178.553681,-8142.265362,-88407.420469
1870.681041,1480.411884,16432.571912,-67876.061123
1870.683641,37454.420665,-17468.860231,-84883.381178
1870.686242,-33753.390955,13027.624579,-63126.269035
1870.688842,32569.061448,-20133.601622,-80133.589091
1870.691443,-16728.654289,-7846.182985,-79214.274493
1870.694043,15692.365970,-4737.318029,-77835.302597
1870.696644,-8290.306550,1628.453072,-75996.673402
1870.699244,8142.265362,-5773.606348,-80440.027290
1870.701845,-592.164754,-4737.318029,-71246.881314
1870.704445,-14656.077652,-444.123565,-75996.673402
1870.707046,-1480.411884,-12287.418637,-77069.207099
1870.709646,-18061.024985,-1332.370696,-75690.235202
1870.712247,6661.853478,-25907.207970,-82585.094684
1870.714847,-8290.306550,3997.112087,-67109.965625
1870.717448,35529.885216,-13323.706956,-79214.274493
1870.720048,-28719.990550,10510.924376,-73238.729609
1870.722649,20281.642811,2812.782580,-72625.853210
1870.725249,-21317.931130,-3997.112087,-77988.521696
1870.727850,36418.132346,-11399.171507,-81206.122788
1870.730450,-3849.070898,1332.370696,-74311.263306
1870.733051,9918.759623,-9622.677246,-75843.454302
1870.735651,1480.411884,-6365.771101,-73851.606007
1870.738251,-3108.864956,-8734.430116,-75690.235202
1870.740852,-13175.665768,-3108.864956,-73085.510509
1870.743452,-28719.990550,20725.766376,-63432.707234
1870.746053,24278.754898,-13323.706956,-93616.869856
1870.748653,-74464.717765,34789.679274,-67416.403824
1870.751254,94894.401764,-32569.061448,-86568.791274
1870.753854,-69135.234983,13175.665768,-58989.353346
1870.756455,51814.415940,-18209.066173,-80593.246390
1870.759055,-25018.960840,-4145.153275,-71706.538613
1870.761656,-4145.153275,-13175.665768,-93463.650756
1870.764256,25611.125593,14656.077652,-77222.426198
1870.766857,19393.395680,8438.347739,-76915.987999
1870.769457,-29904.320057,14952.160028,-72012.976812
1870.772058,17320.819043,6661.853478,-75537.016103
1870.774682,-27091.537477,-5329.482782,-78754.617194
1870.777307,-7994.224174,-7402.059420,-75230.577904
1870.779932,11991.336260,-25907.207970,-81665.780087
1870.782556,-14063.912898,-444.123565,-74770.920605
1870.785181,19689.478057,-15396.283594,-81665.780087
1870.787806,-33901.432144,26499.372724,-68335.718422
1870.790430,21317.931130,-3997.112087,-85343.038477
1870.793055,-25907.207970,22354.219448,-62666.611736
1870.795680,33013.185013,-1776.494261,-75537.016103
1870.798304,-10807.006753,1924.535449,-74464.482406
1870.800929,23390.507767,-7254.018232,-81052.903688
1870.803554,-10658.965565,148.041188,-79061.055394
1870.806178,5773.606348,3108.864956,-75230.577904
1870.808803,-6217.729913,8438.347739,-74770.920605
1870.811428,-14952.160028,7550.100608,-80133.589091
1870.814052,8882.471304,3849.070898,-77222.426198
1870.816677,13619.789333,-6957.935855,-81052.903688
1870.819302,22798.343014,-22650.301825,-84423.723880
1870.821926,-40859.367998,11843.295072,-63432.707234
1870.824551,40563.285622,-14211.954086,-82738.313784
1870.827176,-34345.555709,15988.448347,-65424.555529
1870.829800,36566.173535,-6957.935855,-83044.751983
1870.832425,-12879.583391,21021.848753,-73238.729609
1870.835050,42487.821071,-2516.700203,-88407.420469
1870.837674,-10658.965565,-5773.606348,-87488.105872
1870.840299,17320.819043,5033.400406,-75690.235202
1870.842924,-38934.832549,-15840.407159,-77988.521696
1870.845548,45004.521274,-10658.965565,-79520.712692
1870.848173,-28868.031738,-10807.006753,-74004.825107
1870.850798,18209.066173,15840.407159,-69867.909418
1870.853422,444.123565,-15544.324782,-86262.353075
1870.856047,-53294.827824,4293.194464,-67263.184724
1870.858672,47669.262665,-1184.329507,-72472.634111
1870.861296,-68839.152606,21021.848753,-61440.858940
1870.863921,41155.450375,-14952.160028,-86875.229473
1870.866546,-13323.706956,4293.194464,-71093.662214
1870.869170,32569.061448,-26203.290347,-83197.971083
1870.871795,-37898.544230,0.000000,-72166.195912
1870.874420,22206.178260,-8142.265362,-81359.341888
1870.877044,-32421.020260,11695.253884,-72012.976812
1870.879680,18505.148550,-3108.864956,-90705.706963
1870.882316,-7105.977043,592.164754,-75230.577904
1870.884952,3404.947333,-11843.295072,-77988.521696
1870.887588,4145.153275,-14508.036463,-79367.493593
1870.890224,-36862.255912,9326.594869,-67722.842023
1870.892860,24722.878463,-20873.807564,-86262.353075
1870.895496,-17616.901420,10066.800811,-66650.308326
1870.898132,33457.308578,-10955.047942,-83044.751983
1870.900768,-9178.553681,3108.864956,-77988.521696
1870.903403,14211.954086,-12287.418637,-80440.027290
1870.906039,-12287.418637,4737.318029,-71859.757712
1870.908675,1332.370696,-14508.036463,-79214.274493
1870.911311,-14656.077652,-9474.636058,-71553.319513
1870.913947,11695.253884,-7698.141797,-79367.493593
1870.916583,-6069.688724,-12731.542202,-78601.398095
1870.919219,-11251.130318,-1776.494261,-77069.207099
1870.921855,15100.201217,-11399.171507,-81052.903688
1870.924491,-37306.379477,2220.617826,-68795.375720
1870.927126,27091.537477,-19097.313304,-83504.409282
1870.929762,11103.089130,-8882.471304,-74924.139704
1870.932398,23686.590144,-22354.219448,-77682.083497
1870.935034,1924.535449,1184.329507,-74770.920605
1870.937670,27535.661042,1036.288319,-72012.976812
1870.940306,-50778.127621,10955.047942,-77069.207099
1870.942942,54923.280896,8882.471304,-84730.162079
1870.945578,-58032.145853,-592.164754,-84883.381178
1870.948214,49445.756926,-17912.983796,-83044.751983
1870.950850,29312.155303,-28127.825796,-77375.645298
1870.953485,-46040.809592,16284.530724,-61594.078039
1870.956121,24870.919651,-19689.478057,-91625.021561
1870.958757,-35233.802839,26943.496289,-66956.746525
1870.961393,9178.553681,740.205942,-82738.313784
1870.964029,4885.359217,18949.272115,-70634.004916
1870.966665,22798.343014,-10214.842000,-83044.751983
1870.969301,-16580.613101,11695.253884,-77222.426198
1870.971937,34937.720462,-1776.494261,-78448.178995
1870.974573,-30644.525999,-5033.400406,-72319.415011
1870.977208,15840.407159,-12435.459826,-77682.083497
1870.979844,-2220.617826,-2072.576638,-76609.549800
1870.982480,-11399.171507,7698.141797,-74924.139704
1870.985119,8290.306550,5477.523971,-76915.987999
1870.987758,-14508.036463,13915.871710,-74924.139704
1870.990397,-296.082377,-9918.759623,-79827.150892
1870.993036,-24722.878463,6217.729913,-73545.167808
1870.995675,13915.871710,-16284.530724,-83197.971083
1870.998313,-21910.095883,16728.654289,-70480.785816
1871.000952,19245.354492,-14063.912898,-87947.763170
1871.003591,-6217.729913,6661.853478,-75690.235202
1871.006230,31680.814318,-2812.782580,-82278.656485
1871.008869,-27091.537477,13471.748144,-74617.701505
1871.011508,9474.636058,-3997.112087,-81359.341888
1871.014147,-17172.777854,-2220.617826,-77375.645298
1871.016785,26055.249158,-2220.617826,-80899.684589
1871.019424,-14359.995275,5181.441594,-76915.987999
1871.022063,10658.965565,-3849.070898,-79827.150892
1871.024702,-13175.665768,10955.047942,-77988.521696
1871.027341,-36122.049970,26351.331535,-66343.870127
1871.029980,40267.203245,-14952.160028,-83657.628382
1871.032619,-29756.278868,22058.137072,-63126.269035
1871.035258,15396.283594,-27535.661042,-81818.999186
1871.037896,6661.853478,6217.729913,-72625.853210
1871.040535,1480.411884,-21317.931130,-88100.982270
1871.043174,31828.855506,5329.482782,-77069.207099
1871.045813,-5477.523971,-6069.688724,-77528.864398
1871.048452,-16876.695478,-9030.512492,-79367.493593
1871.051091,31532.773129,10362.883188,-67569.622924
1871.053730,-33457.308578,-2220.617826,-80593.246390
1871.056368,6809.894666,-2368.659014,-78601.398095
1871.059007,9474.636058,-16728.654289,-81052.903688
1871.061646,-51666.374752,-2368.659014,-72319.415011
1871.064285,40711.326810,-34049.473332,-80746.465489
1871.066924,-37306.379477,11991.336260,-67263.184724
1871.069563,20133.601622,-12583.501014,-86262.353075
1871.072202,-16876.695478,25018.960840,-67109.965625
1871.074840,25463.084405,-14656.077652,-84576.942979
1871.077479,-7698.141797,6069.688724,-63585.926334
1871.080118,10955.047942,-5625.565159,-79980.369991
1871.082757,-13619.789333,-3256.906145,-74617.701505
1871.085396,15840.407159,-10066.800811,-79367.493593
1871.088035,-8734.430116,4293.194464,-75230.577904
1871.090672,-3404.947333,-10362.883188,-79980.369991
1871.093309,-1924.535449,-4737.318029,-71400.100414
1871.095946,-13471.748144,-5329.482782,-76303.111601
1871.098583,3997.112087,-20429.683999,-80593.246390
1871.101220,-9622.677246,-148.041188,-75230.577904
1871.103858,11251.130318,-22798.343014,-82585.094684
1871.106495,-19097.313304,4293.194464,-68029.280222
1871.109132,25463.084405,-15988.448347,-83351.190182
1871.111769,-4737.318029,2368.659014,-70480.785816
1871.114406,8290.306550,-7402.059420,-77988.521696
1871.117043,-4293.194464,148.041188,-77069.207099
1871.119680,35677.926404,-19393.395680,-77528.864398
1871.122317,-26943.496289,-10362.883188,-81512.560987
1871.124954,45300.603650,-8290.306550,-77528.864398
1871.127591,-24574.837274,7846.182985,-65884.212828
1871.130228,-19245.354492,592.164754,-82125.437386
1871.132865,58328.228230,-13471.748144,-89173.515967
1871.135502,-48557.509795,18357.107362,-68642.156621
1871.138139,38490.708984,-20429.683999,-89020.296868
1871.140776,-9622.677246,1184.329507,-72166.195912
1871.143413,10807.006753,-6809.894666,-79827.150892
1871.146050,1332.370696,3552.988522,-71246.881314
1871.148687,11399.171507,-6069.688724,-78448.178995
1871.151324,-21169.889941,22798.343014,-70327.566716
1871.153961,43968.232955,-2960.823768,-80133.589091
1871.156598,-25463.084405,10955.047942,-76149.892501
1871.159235,3849.070898,4885.359217,-80899.684589
1871.161872,-7846.182985,3404.947333,-75077.358804
1871.164509,-18949.272115,-4293.194464,-79367.493593
1871.167146,1924.535449,-13471.748144,-77069.207099
1871.169783,-6661.853478,-1332.370696,-74158.044206
1871.172420,9178.553681,-14359.995275,-82125.437386
1871.175057,-17616.901420,26055.249158,-69867.909418
1871.177694,20133.601622,-7994.224174,-86262.353075
1871.180331,-31236.690752,17912.983796,-64045.583633
1871.182968,21614.013506,-19689.478057,-86568.791274
1871.185605,-18061.024985,7994.224174,-71706.538613
1871.188242,34493.596897,-4737.318029,-79827.150892
1871.190879,-5477.523971,5477.523971,-80593.246390
1871.193516,17468.860231,4441.235652,-78294.959896
1871.196146,-15988.448347,11251.130318,-71400.100414
1871.198776,-12435.459826,-6809.894666,-82125.437386
1871.201407,-14508.036463,-1332.370696,-73851.606007
1871.204037,17616.901420,-2072.576638,-80286.808190
1871.206667,-8586.388927,-3701.029710,-78141.740796
1871.209297,-3552.988522,8438.347739,-68948.594820
1871.211927,51518.333563,3849.070898,-80440.027290
1871.214557,-52406.580694,25759.166782,-63126.269035
1871.217187,47965.345042,-12139.377449,-82585.094684
1871.219818,-17764.942608,6957.935855,-70480.785816
1871.222448,2368.659014,-20281.642811,-77222.426198
1871.225078,26351.331535,3404.947333,-76149.892501
1871.227708,-3997.112087,-14508.036463,-80286.808190
1871.230338,22946.384202,8438.347739,-83197.971083
1871.232968,-7254.018232,-5921.647536,-78141.740796
1871.235599,-19837.519246,-5773.606348,-75077.358804
1871.238229,18209.066173,3108.864956,-78141.740796
1871.240859,-13175.665768,-11695.253884,-82891.532884
1871.243489,-7402.059420,8290.306550,-72166.195912
1871.246119,24130.713709,-19689.478057,-85802.695776
1871.248749,-54331.116143,6957.935855,-67263.184724
1871.251380,43524.109390,-35233.802839,-87181.667672
1871.254010,-29608.237680,12287.418637,-63126.269035
1871.256640,24870.919651,-10658.965565,-84117.285680
1871.259270,-7254.018232,12583.501014,-69714.690318
1871.261900,18061.024985,-2812.782580,-79827.150892
1871.264530,-21910.095883,-592.164754,-72319.415011
1871.267160,14508.036463,-10066.800811,-83657.628382
1871.269791,-19837.519246,-5329.482782,-74158.044206
1871.272421,4885.359217,-9770.718434,-83044.751983
1871.275051,4293.194464,-10658.965565,-79827.150892
1871.277681,-19985.560434,-1480.411884,-72932.291410
1871.280311,8438.347739,-20281.642811,-79827.150892
1871.282941,-25907.207970,8734.430116,-72166.195912
1871.285572,9178.553681,-19985.560434,-80593.246390
1871.288202,-444.123565,296.082377,-77069.207099
1871.290832,33161.226202,-9178.553681,-77835.302597
1871.293462,-19393.395680,592.164754,-75077.358804
1871.296092,30644.525999,-14211.954086,-82125.437386
1871.298722,-17912.983796,7550.100608,-74617.701505
1871.301256,-444.123565,-5773.606348,-82585.094684
1871.303789,19689.478057,-5477.523971,-78141.740796
1871.306323,2960.823768,-8438.347739,-73391.948708
1871.308856,-4589.276840,888.247130,-74311.263306
1871.311390,14952.160028,-11843.295072,-81512.560987
1871.313923,7846.182985,-5329.482782,-87947.763170
1871.316457,-14952.160028,22354.219448,-66190.651027
1871.318990,82014.818374,-17320.819043,-82278.656485
1871.321524,-36418.132346,8142.265362,-61134.420740
1871.324057,32865.143825,-10510.924376,-78907.836294
1871.326591,-11843.295072,-5181.441594,-79827.150892
1871.329124,15544.324782,-4737.318029,-82125.437386
1871.331658,-2960.823768,5625.565159,-83657.628382
1871.334191,-11991.336260,6809.894666,-80746.465489
1871.336724,2220.617826,14359.995275,-72932.291410
1871.339258,-15100.201217,22354.219448,-70480.785816
1871.341791,18505.148550,-15248.242405,-89786.392366
1871.344325,-27239.578666,22946.384202,-65271.336430
1871.346858,29608.237680,-23094.425390,-85189.819378
1871.349392,-23242.466579,7254.018232,-69255.033019
1871.351925,27387.619854,-15840.407159,-84576.942979
1871.354459,-10214.842000,11991.336260,-70021.128517
1871.356992,30496.484810,-3108.864956,-83504.409282
1871.359526,-2516.700203,3552.988522,-78294.959896
1871.362059,17024.736666,-5329.482782,-78294.959896
1871.364593,-7994.224174,-296.082377,-72932.291410
1871.367126,-3849.070898,8734.430116,-74617.701505
1871.369660,3701.029710,-6069.688724,-79367.493593
1871.372193,-3997.112087,1480.411884,-75383.797003
1871.374727,6809.894666,-12583.501014,-79827.150892
1871.377260,-29608.237680,10066.800811,-72012.976812
1871.379794,17320.819043,-11399.171507,-81665.780087
1871.382327,-35085.761651,23686.590144,-67569.622924
1871.384861,31088.649564,-17024.736666,-87794.544071
1871.387394,-31976.896694,25611.125593,-76303.111601
1871.389928,44856.480085,740.205942,-84730.162079
1871.392461,-31236.690752,148.041188,-85343.038477
1871.394994,17320.819043,10658.965565,-76303.111601
1871.397528,-26943.496289,-5181.441594,-77375.645298
1871.400061,6661.853478,-15100.201217,-83964.066581
1871.402616,5033.400406,-9918.759623,-79980.369991
1871.405170,12435.459826,1480.411884,-82585.094684
1871.407724,-26055.249158,4145.153275,-66497.089226
1871.410278,11843.295072,-7254.018232,-76915.987999
1871.412832,-13767.830521,-10362.883188,-78754.617194
1871.415386,-35381.844028,9622.677246,-67263.184724
1871.417940,45744.727216,-20577.725188,-85955.914876
1871.420494,-38490.708984,8586.388927,-68795.375720
1871.423048,43968.232955,-25907.207970,-83504.409282
1871.425602,1628.453072,-2812.782580,-68642.156621
1871.428156,10214.842000,-8142.265362,-74770.920605
1871.430710,-5329.482782,-4589.276840,-78601.398095
1871.433265,11695.253884,-296.082377,-72472.634111
1871.435819,-11251.130318,-3108.864956,-81206.122788
1871.438373,26795.455100,-6957.935855,-79827.150892
1871.440927,-2220.617826,-12879.583391,-76762.768900
1871.443481,-8586.388927,592.164754,-71553.319513
1871.446035,10807.006753,-23390.507767,-84117.285680
1871.448589,-30496.484810,16136.489536,-65118.117330
1871.451143,21910.095883,-19541.436869,-81665.780087
1871.453697,-11843.295072,6069.688724,-64045.583633
1871.456251,11547.212695,-15840.407159,-85955.914876
1871.458805,-13619.789333,9030.512492,-71093.662214
1871.461359,32717.102636,-12287.418637,-80899.684589
1871.463914,-25463.084405,1480.411884,-73545.167808
1871.466468,23982.672521,-13323.706956,-78294.959896
1871.469022,-17468.860231,2516.700203,-74617.701505
1871.471576,7254.018232,-7846.182985,-79520.712692
1871.474130,4293.194464,-13619.789333,-77528.864398
1871.476684,-18801.230927,-10807.006753,-80286.808190
1871.479238,22946.384202,-6069.688724,-74004.825107
1871.481792,-19245.354492,6809.894666,-67722.842023
1871.484346,-15840.407159,-13027.624579,-81665.780087
1871.486900,13767.830521,1924.535449,-74924.139704
1871.489454,14804.118840,1924.535449,-72012.976812
1871.492008,7698.141797,-1776.494261,-74770.920605
1871.494563,3997.112087,-14211.954086,-75077.358804
1871.497117,-15396.283594,4441.235652,-72012.976812
1871.499671,43968.232955,-10807.006753,-81206.122788
1871.502225,-28719.990550,7698.141797,-73545.167808
1871.504792,30200.402434,14211.954086,-83657.628382
1871.507358,-15544.324782,7550.100608,-82278.656485
1871.509925,8438.347739,-4589.276840,-80440.027290
1871.512492,-7846.182985,10807.006753,-72319.415011
1871.515059,-21465.972318,17616.901420,-66497.089226
1871.517626,8882.471304,-17468.860231,-87641.324971
1871.520193,-16580.613101,14952.160028,-66343.870127
1871.522759,32717.102636,-19245.354492,-81512.560987
1871.525326,-27091.537477,19689.478057,-68948.594820
1871.527893,29460.196492,-3701.029710,-83351.190182
1871.530460,-20725.766376,15248.242405,-69561.471218
1871.533027,26203.290347,-15248.242405,-84730.162079
1871.535594,1480.411884,7994.224174,-72166.195912
1871.538160,11103.089130,-888.247130,-77069.207099
1871.540727,-14656.077652,-296.082377,-75690.235202
1871.543294,10807.006753,-4145.153275,-82125.437386
1871.545861,-19837.519246,-2516.700203,-79367.493593
1871.548428,-16136.489536,1036.288319,-72472.634111
1871.550995,21614.013506,-8586.388927,-79367.493593
1871.553561,-24574.837274,14952.160028,-71553.319513
1871.556128,13323.706956,-12287.418637,-82891.532884
1871.558695,-15248.242405,28275.866984,-67722.842023
1871.561262,19245.354492,-10658.965565,-85955.914876
1871.563829,-14508.036463,10362.883188,-71093.662214
1871.566396,29016.072926,740.205942,-72166.195912
1871.568962,-42191.738694,-13471.748144,-79827.150892
1871.571529,63509.669824,4441.235652,-75383.797003
1871.574096,-47521.221476,-7846.182985,-80440.027290
1871.576663,47521.221476,-4441.235652,-87488.105872
1871.579230,-34049.473332,2960.823768,-72779.072310
1871.581797,0.000000,-23686.590144,-81052.903688
1871.584363,5921.647536,7846.182985,-66803.527426
1871.586863,-28127.825796,-592.164754,-76609.549800
1871.589363,39526.997303,-18801.230927,-89173.515967
1871.591862,-23538.548956,6957.935855,-65271.336430
1871.594362,19245.354492,-27535.661042,-88100.982270
1871.596861,-11399.171507,-4589.276840,-68795.375720
1871.599361,23390.507767,-11251.130318,-81665.780087
1871.601860,-13175.665768,5625.565159,-72625.853210
1871.604360,35381.844028,-9918.759623,-77069.207099
1871.606860,-14063.912898,148.041188,-78141.740796
1871.609359,23686.590144,-5625.565159,-80133.589091
1871.611859,-24278.754898,2072.576638,-77988.521696
1871.614358,19985.560434,-3552.988522,-75077.358804
1871.616858,17616.901420,-21614.013506,-75230.577904
1871.619357,-17468.860231,1480.411884,-74004.825107
1871.621857,13323.706956,-21169.889941,-81359.341888
1871.624357,-24426.796086,5477.523971,-66190.651027
1871.626856,13027.624579,-17320.819043,-83964.066581
1871.629356,-27979.784608,10362.883188,-67263.184724
1871.631855,27683.702231,-18949.272115,-85802.695776
1871.634355,-20725.766376,6513.812290,-71553.319513
1871.636855,36270.091158,-14063.912898,-79980.369991
1871.639354,-18505.148550,-1480.411884,-77682.083497
1871.641854,38490.708984,-13767.830521,-79980.369991
1871.644353,-49149.674549,7994.224174,-77069.207099
1871.646853,4145.153275,-1924.535449,-83657.628382
1871.649352,7698.141797,-2812.782580,-77222.426198
1871.651852,-12139.377449,7846.182985,-75996.673402
1871.654352,38490.708984,-7254.018232,-77528.864398
1871.656851,-40711.326810,24870.919651,-72779.072310
1871.659351,-3701.029710,-17912.983796,-82125.437386
1871.661850,-7550.100608,-3849.070898,-76762.768900
1871.664350,-3256.906145,-17172.777854,-79214.274493
1871.666850,-18209.066173,8882.471304,-67876.061123
1871.669349,35974.008781,1332.370696,-82125.437386
1871.671849,-24722.878463,18653.189738,-74924.139704
1871.674348,35381.844028,2368.659014,-77528.864398
1871.676848,-17912.983796,-5329.482782,-80133.589091
1871.679347,12583.501014,3701.029710,-74770.920605
1871.681847,-11251.130318,5921.647536,-79980.369991
1871.684347,15544.324782,-5181.441594,-81206.122788
1871.686871,-9918.759623,2220.617826,-76456.330700
1871.689396,-20577.725188,15248.242405,-64352.021832
1871.691920,13767.830521,-16284.530724,-84117.285680
1871.694445,-30644.525999,23538.548956,-70634.004916
1871.696969,25907.207970,-12139.377449,-84883.381178
1871.699494,-12879.583391,14656.077652,-68948.594820
1871.702018,31532.773129,-7550.100608,-80746.465489
1871.704543,-21021.848753,12731.542202,-69101.813920
1871.707068,26647.413912,-9030.512492,-84576.942979
1871.709592,-14508.036463,10066.800811,-71246.881314
1871.712117,23834.631332,-2516.700203,-78141.740796
1871.714641,-3701.029710,5477.523971,-77835.302597
1871.717166,6957.935855,-7105.977043,-80440.027290
1871.719690,-12287.418637,-3256.906145,-78141.740796
1871.722215,3108.864956,9326.594869,-75537.016103
1871.724739,-23982.672521,-6217.729913,-78601.398095
1871.727264,-3404.947333,11103.089130,-68182.499322
1871.729788,25611.125593,-21910.095883,-81972.218286
1871.732313,-28275.866984,-3108.864956,-71400.100414
1871.734838,60696.887244,-10658.965565,-86875.229473
1871.737362,-27683.702231,8882.471304,-67416.403824
1871.739887,25907.207970,10807.006753,-65884.212828
1871.742411,6957.935855,-592.164754,-69101.813920
1871.744936,-20133.601622,-5033.400406,-77528.864398
1871.747460,22058.137072,-22946.384202,-83657.628382
1871.749985,-7698.141797,-1480.411884,-73545.167808
1871.752509,-5477.523971,-10214.842000,-79061.055394
1871.755034,-12435.459826,296.082377,-71246.881314
1871.757558,1480.411884,-23834.631332,-81512.560987
1871.760083,-22650.301825,5625.565159,-70634.004916
1871.762607,26351.331535,-22798.343014,-87334.886772
1871.765132,-23390.507767,21465.972318,-66190.651027
1871.767657,20133.601622,-5477.523971,-82431.875585
1871.770181,-5477.523971,-4441.235652,-75843.454302
1871.772706,11547.212695,-8142.265362,-76915.987999
1871.775230,-12287.418637,-2516.700203,-78754.617194
1871.777755,9474.636058,-1628.453072,-79061.055394
1871.780279,444.123565,-4441.235652,-75230.577904
1871.782804,8586.388927,-15396.283594,-79827.150892
1871.785328,-16432.571912,-6365.771101,-74770.920605
1871.787872,-9326.594869,-4885.359217,-75537.016103
1871.790415,21021.848753,-24574.837274,-84117.285680
1871.792959,-13619.789333,6513.812290,-69867.909418
1871.795502,30792.567187,-17320.819043,-82431.875585
1871.798045,-10658.965565,5033.400406,-71553.319513
1871.800589,27239.578666,-14211.954086,-82585.094684
1871.803132,-18653.189738,-2812.782580,-74311.263306
1871.805676,25463.084405,-1480.411884,-79214.274493
1871.808219,-23094.425390,5033.400406,-68795.375720
1871.810762,26203.290347,-11843.295072,-81818.999186
1871.813306,-8734.430116,5033.400406,-83504.409282
1871.815849,-66322.452403,9622.677246,-81206.122788
1871.818393,58772.351795,-22650.301825,-83197.971083
1871.820936,-46929.056723,13175.665768,-65884.212828
1871.823479,10955.047942,-13175.665768,-82431.875585
1871.826023,-18653.189738,10658.965565,-64198.802732
1871.828566,11103.089130,-15840.407159,-88254.201370
1871.831110,-8290.306550,27831.743419,-67569.622924
1871.833653,22502.260637,-5033.400406,-88560.639569
1871.836196,-5033.400406,18209.066173,-67876.061123
1871.838740,20133.601622,-10510.924376,-83504.409282
1871.841283,-17320.819043,2664.741391,-74617.701505
1871.843827,5921.647536,-3256.906145,-81359.341888
1871.846370,-2516.700203,-592.164754,-78601.398095
1871.848913,8142.265362,-7550.100608,-79061.055394
1871.851457,-5921.647536,1332.370696,-73851.606007
1871.854000,-23538.548956,8586.388927,-80899.684589
1871.856544,6957.935855,-13619.789333,-80286.808190
1871.859087,-16136.489536,11547.212695,-69255.033019
1871.861630,13175.665768,-10362.883188,-81206.122788
1871.864174,-20429.683999,15396.283594,-68182.499322
1871.866717,24278.754898,-5477.523971,-84730.162079
1871.869261,-10658.965565,8882.471304,-73238.729609
1871.871804,25167.002028,-2812.782580,-78601.398095
1871.874347,-16136.489536,6957.935855,-75537.016103
1871.876891,23538.548956,-3404.947333,-76915.987999
1871.879434,-18949.272115,6809.894666,-80133.589091
1871.881978,38490.708984,1184.329507,-82431.875585
1871.884521,-33753.390955,6217.729913,-73391.948708
1871.887064,15544.324782,-1332.370696,-75996.673402
1871.889620,7254.018232,-21614.013506,-81512.560987
1871.892176,-32865.143825,4885.359217,-72166.195912
1871.894732,44264.315332,-29164.114115,-92084.678860
1871.897288,-18949.272115,18061.024985,-59755.448844
1871.899844,24870.919651,-6069.688724,-78448.178995
1871.902400,-20725.766376,4589.276840,-68948.594820
1871.904956,14063.912898,-19245.354492,-80133.589091
1871.907512,6661.853478,-4885.359217,-81359.341888
1871.910068,9474.636058,-3849.070898,-73698.386908
1871.912624,-3849.070898,-1184.329507,-76609.549800
1871.915180,17468.860231,-15544.324782,-79827.150892
1871.917736,-4293.194464,-10214.842000,-68948.594820
1871.920292,-10214.842000,-6957.935855,-75383.797003
1871.922848,4441.235652,-13915.871710,-78294.959896
1871.925404,-26499.372724,5921.647536,-73238.729609
1871.927960,14359.995275,-18061.024985,-81665.780087
1871.930516,-12879.583391,7402.059420,-68948.594820
1871.933072,17468.860231,-18801.230927,-84423.723880
1871.935628,-25167.002028,14508.036463,-70174.347617
1871.938184,23242.466579,-18801.230927,-85802.695776
1871.940740,-1184.329507,-4589.276840,-78601.398095
1871.943296,14804.118840,-7550.100608,-73238.729609
1871.945852,-14804.118840,-6513.812290,-79980.369991
1871.948408,18209.066173,-15988.448347,-81818.999186
1871.950964,-10658.965565,1332.370696,-74311.263306
1871.953520,7105.977043,-13027.624579,-80746.465489
1871.956076,-5921.647536,-148.041188,-73085.510509
1871.958632,-16284.530724,-6069.688724,-76915.987999
1871.961188,28423.908173,-21021.848753,-79214.274493
1871.963744,-21910.095883,9770.718434,-68642.156621
1871.966300,444.123565,-15100.201217,-83351.190182
1871.968856,-9918.759623,5329.482782,-67263.184724
1871.971412,27387.619854,-5625.565159,-79980.369991
1871.973968,-5181.441594,11399.171507,-66190.651027
1871.976524,19245.354492,4589.276840,-79827.150892
1871.979080,-22650.301825,8142.265362,-75077.358804
1871.981636,41303.491564,-8142.265362,-75690.235202
1871.984192,-18949.272115,1924.535449,-76303.111601
1871.986748,31088.649564,1480.411884,-77835.302597
1871.989304,-35233.802839,10510.924376,-78294.959896
1871.991870,-29608.237680,14063.912898,-75537.016103
1871.994435,26351.331535,-7698.141797,-83657.628382
1871.997001,-15840.407159,9178.553681,-68029.280222
1871.999567,11991.336260,-14063.912898,-84270.504780
1872.002133,-23982.672521,21762.054695,-66497.089226
1872.004698,23834.631332,-15100.201217,-85955.914876
1872.007264,-23390.507767,13323.706956,-68335.718422
1872.009830,27831.743419,-10658.965565,-83197.971083
1872.012396,-11843.295072,12583.501014,-69408.252119
1872.014961,29460.196492,-7402.059420,-80286.808190
1872.017527,-13027.624579,3997.112087,-76915.987999
1872.020093,-148.041188,444.123565,-82431.875585
1872.022659,-7402.059420,2812.782580,-76149.892501
1872.025224,-11547.212695,3997.112087,-77528.864398
1872.027790,6217.729913,444.123565,-81665.780087
1872.030356,-148.041188,5033.400406,-75077.358804
1872.032922,5921.647536,-12731.542202,-81052.903688
1872.035487,-29904.320057,15988.448347,-71400.100414
1872.038053,6661.853478,-6661.853478,-82125.437386
1872.040619,-15100.201217,18653.189738,-68948.594820
1872.043185,50926.168810,-11843.295072,-77682.083497
1872.045750,-7105.977043,8586.388927,-70327.566716
1872.048316,7698.141797,-15840.407159,-81972.218286
1872.050882,18505.148550,10362.883188,-73851.606007
1872.053448,-33753.390955,-10658.965565,-80746.465489
1872.056013,26795.455100,-592.164754,-76149.892501
1872.058579,-2220.617826,-2368.659014,-74004.825107
1872.061145,-11695.253884,-9178.553681,-72625.853210
1872.063711,2960.823768,4737.318029,-75996.673402
1872.066276,-3849.070898,-10214.842000,-76915.987999
1872.068842,-10807.006753,2664.741391,-74924.139704
1872.071408,9030.512492,-21021.848753,-81665.780087
1872.073974,-14508.036463,-1628.453072,-71093.662214
1872.076539,30200.402434,-22354.219448,-79214.274493
1872.079105,-9622.677246,11103.089130,-66343.870127
1872.081671,26499.372724,-10510.924376,-84730.162079
1872.084237,-11695.253884,1036.288319,-75077.358804
1872.086802,16580.613101,-9030.512492,-81818.999186
1872.089368,-14359.995275,-3256.906145,-76762.768900
1872.091934,20725.766376,-10066.800811,-79673.931792
1872.094505,13323.706956,-19097.313304,-82738.313784
1872.097078,-11843.295072,3404.947333,-72319.415011
1872.099651,2664.741391,-13915.871710,-78601.398095
1872.102224,-24870.919651,-6513.812290,-75383.797003
1872.104797,8586.388927,-18061.024985,-76149.892501
1872.107369,-21169.889941,3997.112087,-71400.100414
1872.109942,23538.548956,-20133.601622,-84883.381178
1872.112515,-20281.642811,18949.272115,-64505.240932
1872.115088,27683.702231,-21762.054695,-88407.420469
1872.117661,-29164.114115,-8142.265362,-75230.577904
1872.120234,35233.802839,6365.771101,-75077.358804
1872.122807,-31088.649564,6513.812290,-71553.319513
1872.125380,6513.812290,-14359.995275,-85802.695776
1872.127953,13471.748144,6513.812290,-71246.881314
1872.130525,-45448.644839,-2664.741391,-84423.723880
1872.133098,48409.468607,-11103.089130,-75383.797003
1872.135671,-37306.379477,11399.171507,-70480.785816
1872.138244,6513.812290,-16728.654289,-76609.549800
1872.140817,-14063.912898,2368.659014,-69561.471218
1872.143390,20873.807564,-14952.160028,-89633.173266
1872.145963,3256.906145,20429.683999,-70021.128517
1872.148536,4145.153275,4441.235652,-82278.656485
1872.151109,-12139.377449,14804.118840,-73391.948708
1872.153682,10362.883188,-5329.482782,-81052.903688
1872.156254,-14063.912898,4589.276840,-73391.948708
1872.158827,1628.453072,-3552.988522,-77375.645298
1872.161400,3701.029710,-10362.883188,-79367.493593
1872.163973,-7254.018232,1924.535449,-75690.235202
1872.166546,2812.782580,-4589.276840,-74770.920605
1872.169119,-26055.249158,19837.519246,-68948.594820
1872.171692,26203.290347,-10658.965565,-84576.942979
1872.174265,-15988.448347,11251.130318,-69101.813920
1872.176838,31680.814318,-8734.430116,-83044.751983
1872.179411,-7402.059420,9474.636058,-74158.044206
1872.181983,21021.848753,-1036.288319,-83657.628382
1872.184556,-7105.977043,7402.059420,-77528.864398
1872.187129,15544.324782,1776.494261,-74617.701505
1872.189702,-25463.084405,7994.224174,-78448.178995
1872.192275,29756.278868,5033.400406,-75230.577904
1872.194848,-17468.860231,-12731.542202,-81818.999186
1872.197424,-6661.853478,15396.283594,-69408.252119
1872.200001,27091.537477,-22502.260637,-84423.723880
1872.202578,-56255.651592,8290.306550,-66803.527426
1872.205154,51074.209998,-5773.606348,-80133.589091
1872.207731,-54627.198520,1776.494261,-68182.499322
1872.210307,61289.051998,-9178.553681,-83504.409282
1872.212884,-31384.731941,5329.482782,-70940.443115
1872.215460,24870.919651,-34197.514520,-93310.431656
1872.218037,3552.988522,16580.613101,-69714.690318
1872.220614,-7550.100608,296.082377,-71553.319513
1872.223190,-1036.288319,-3701.029710,-74311.263306
1872.225767,592.164754,-15840.407159,-79367.493593
1872.228343,-10658.965565,-15100.201217,-72012.976812
1872.230920,5921.647536,-14063.912898,-82431.875585
1872.233496,1924.535449,-8882.471304,-75996.673402
1872.236073,-22650.301825,6513.812290,-74158.044206
1872.238650,7105.977043,-17912.983796,-84117.285680
1872.241226,-23982.672521,12583.501014,-67876.061123
1872.243803,19985.560434,-20873.807564,-86875.229473
1872.246379,-6661.853478,0.000000,-73391.948708
1872.248956,19985.560434,-7994.224174,-78907.836294
1872.251532,-10066.800811,-1480.411884,-78601.398095
1872.254109,12879.583391,-10362.883188,-78294.959896
1872.256686,-15248.242405,-3404.947333,-78448.178995
1872.259262,20725.766376,-15100.201217,-81052.903688
1872.261839,-15248.242405,2516.700203,-74004.825107
1872.264415,14508.036463,-9474.636058,-80746.465489
1872.266992,-16728.654289,-6513.812290,-76303.111601
1872.269568,9326.594869,-14804.118840,-76609.549800
1872.272145,44856.480085,-9770.718434,-83657.628382
1872.274722,-31976.896694,14359.995275,-64198.802732
1872.277298,14211.954086,-19985.560434,-85036.600278
1872.279875,-592.164754,8882.471304,-71553.319513
1872.282451,-6217.729913,-10214.842000,-80899.684589
1872.285028,31236.690752,444.123565,-75077.358804
1872.287604,1776.494261,1628.453072,-71093.662214
1872.290181,-10807.006753,-444.123565,-70940.443115
1872.292758,28868.031738,-8586.388927,-78294.959896
1872.295334,-14211.954086,3849.070898,-77528.864398
1872.297911,15692.365970,5477.523971,-80440.027290
1872.300490,-13471.748144,4145.153275,-77069.207099
1872.303069,-13915.871710,5625.565159,-76456.330700
1872.305648,5477.523971,-17468.860231,-84730.162079
1872.308227,-23982.672521,14952.160028,-72166.195912
1872.310806,23538.548956,-14508.036463,-82585.094684
1872.313385,-23834.631332,15840.407159,-70480.785816
1872.315964,19097.313304,-16136.489536,-82891.532884
1872.318543,-23686.590144,10955.047942,-67876.061123
1872.321122,18653.189738,-2220.617826,-79214.274493
1872.323701,-17764.942608,8290.306550,-78448.178995
1872.326280,23834.631332,-4293.194464,-80593.246390
1872.328859,-2368.659014,2664.741391,-79061.055394
1872.331438,9622.677246,8290.306550,-75077.358804
1872.334017,-7698.141797,9326.594869,-78754.617194
1872.336596,444.123565,296.082377,-78907.836294
1872.339175,-15692.365970,5033.400406,-73851.606007
1872.341754,-10362.883188,5625.565159,-79673.931792
1872.344333,29460.196492,-8290.306550,-78294.959896
1872.346912,-23982.672521,11991.336260,-68795.375720
1872.349492,26795.455100,-4589.276840,-80899.684589
1872.352071,-24722.878463,3552.988522,-66343.870127
1872.354650,22206.178260,-17912.983796,-87181.667672
1872.357229,3849.070898,-7994.224174,-79214.274493
1872.359808,22206.178260,-888.247130,-78601.398095
1872.362387,-11251.130318,3404.947333,-73391.948708
1872.364966,38194.626607,-8438.347739,-72932.291410
1872.367545,-31384.731941,-1480.411884,-75690.235202
1872.370124,30792.567187,-8290.306550,-87641.324971
1872.372703,148.041188,-20133.601622,-81665.780087
1872.375282,-22798.343014,5477.523971,-68642.156621
1872.377861,17616.901420,-29460.196492,-84883.381178
1872.380440,-15544.324782,4737.318029,-63585.926334
1872.383019,12731.542202,-20725.766376,-85496.257577
1872.385598,-24574.837274,11843.295072,-70021.128517
1872.388177,20577.725188,-13915.871710,-81972.218286
1872.390756,-20281.642811,13027.624579,-68948.594820
1872.393335,29756.278868,-19393.395680,-85036.600278
1872.395914,-13175.665768,5033.400406,-71400.100414
1872.398493,17024.736666,-5033.400406,-79061.055394
1872.401072,-13175.665768,-740.205942,-76303.111601
1872.403652,7105.977043,-9622.677246,-77835.302597
1872.406231,-13175.665768,-7994.224174,-74158.044206
1872.408811,5773.606348,-14063.912898,-77528.864398
1872.411390,-4293.194464,-9770.718434,-77375.645298
1872.413970,-10955.047942,-4145.153275,-76915.987999
1872.416549,7994.224174,-23242.466579,-78907.836294
1872.419128,-25907.207970,2664.741391,-70634.004916
1872.421708,15988.448347,-11103.089130,-81818.999186
1872.424287,-25611.125593,12731.542202,-64811.679131
1872.426867,8290.306550,-21021.848753,-90858.926063
1872.429446,15692.365970,-1924.535449,-75996.673402
1872.432026,-16136.489536,-7846.182985,-82891.532884
1872.434605,38046.585419,-8734.430116,-83504.409282
1872.437185,-9770.718434,17468.860231,-62666.611736
1872.439764,-9770.718434,2516.700203,-76303.111601
1872.442344,11251.130318,-2220.617826,-76609.549800
1872.444923,-10807.006753,6661.853478,-74004.825107
1872.447503,-1036.288319,20429.683999,-74311.263306
1872.450082,1924.535449,-9474.636058,-83964.066581
1872.452661,-22502.260637,17172.777854,-67416.403824
1872.455241,23538.548956,-16580.613101,-83810.847481
1872.457820,-28571.949361,17172.777854,-68182.499322
1872.460400,31384.731941,-9326.594869,-85802.695776
1872.462979,-11251.130318,8882.471304,-71706.538613
1872.465559,22502.260637,-13471.748144,-82278.656485
1872.468138,-13027.624579,5625.565159,-73085.510509
1872.470718,17024.736666,-5921.647536,-79367.493593
1872.473297,-9030.512492,2368.659014,-79214.274493
1872.475877,4293.194464,-1776.494261,-83351.190182
1872.478456,2812.782580,4885.359217,-73085.510509
1872.481035,4293.194464,3256.906145,-76762.768900
1872.483615,-10362.883188,3404.947333,-78141.740796
1872.486194,-16876.695478,7254.018232,-73238.729609
1872.488774,-3552.988522,-12287.418637,-83964.066581
1872.491353,-1332.370696,14508.036463,-75077.358804
1872.493933,-4293.194464,-12139.377449,-82585.094684
1872.496512,-6957.935855,13619.789333,-67569.622924
1872.499092,34937.720462,-8438.347739,-80440.027290
1872.501671,-39823.079680,-2072.576638,-77682.083497
1872.504251,47373.180288,2960.823768,-77528.864398
1872.506777,-34345.555709,-8734.430116,-70480.785816
1872.509303,46188.850781,1628.453072,-68182.499322
1872.511830,-25611.125593,-10807.006753,-82738.313784
1872.514356,20873.807564,-25167.002028,-77988.521696
1872.516882,-2960.823768,2812.782580,-76456.330700
1872.519409,-6809.894666,-1924.535449,-77069.207099
1872.521935,444.123565,-11695.253884,-72472.634111
1872.524461,-34641.638086,7254.018232,-67569.622924
1872.526988,24278.754898,-28719.990550,-88254.201370
1872.529514,-10955.047942,8586.388927,-66343.870127
1872.532040,27535.661042,-11399.171507,-85189.819378
1872.534567,-24574.837274,13471.748144,-67416.403824
1872.537093,27535.661042,-17172.777854,-83044.751983
1872.539619,-13915.871710,1776.494261,-71400.100414
1872.542145,29460.196492,-10510.924376,-76915.987999
1872.544672,-13175.665768,296.082377,-75537.016103
1872.547198,28275.866984,-10658.965565,-81359.341888
1872.549724,-4145.153275,-10214.842000,-72932.291410
1872.552251,-4293.194464,-9770.718434,-76149.892501
1872.554777,-5625.565159,-20281.642811,-76303.111601
1872.557303,-13471.748144,2368.659014,-72012.976812
1872.559830,1924.535449,-15840.407159,-82738.313784
1872.562356,-4737.318029,-2516.700203,-69101.813920
1872.564882,10807.006753,-22502.260637,-81052.903688
1872.567409,-17172.777854,9326.594869,-74617.701505
1872.569935,38934.832549,-6365.771101,-76303.111601
1872.572461,-41895.656317,-148.041188,-77528.864398
1872.574988,63509.669824,148.041188,-79367.493593
1872.577514,-29460.196492,16136.489536,-74311.263306
1872.580040,1332.370696,-3701.029710,-77222.426198
1872.582567,-2960.823768,-15840.407159,-81818.999186
1872.585093,-21465.972318,14656.077652,-69408.252119
1872.587619,22058.137072,-23538.548956,-85036.600278
1872.590146,-39378.956114,20725.766376,-65884.212828
1872.592672,37010.297100,-1184.329507,-87181.667672
1872.595198,-27387.619854,26647.413912,-66190.651027
1872.597725,16728.654289,-8586.388927,-83044.751983
1872.600251,-18653.189738,11103.089130,-72319.415011
1872.602777,24426.796086,-2516.700203,-76762.768900
1872.605304,-20429.683999,2664.741391,-75690.235202
1872.607843,27387.619854,-148.041188,-77988.521696
1872.610383,-8734.430116,3701.029710,-77222.426198
1872.612922,9326.594869,-2368.659014,-76609.549800
1872.615461,-11843.295072,5181.441594,-75230.577904
1872.618001,-11991.336260,-2220.617826,-81512.560987
1872.620540,4589.276840,-592.164754,-76609.549800
1872.623080,-3256.906145,7550.100608,-78601.398095
1872.625619,7846.182985,-6661.853478,-80133.589091
1872.628158,-24426.796086,18209.066173,-69714.690318
1872.630698,17320.819043,-6069.688724,-87641.324971
1872.633237,0.000000,13323.706956,-69408.252119
1872.635777,10955.047942,-11251.130318,-83197.971083
1872.638316,-9030.512492,9326.594869,-71553.319513
1872.640856,50630.086433,-11547.212695,-74311.263306
1872.643395,-28423.908173,-1036.288319,-72166.195912
1872.645934,41007.409187,11843.295072,-74924.139704
1872.648474,-44412.356520,-10362.883188,-76456.330700
1872.651013,-6365.771101,-3849.070898,-81206.122788
1872.653553,-1332.370696,-9770.718434,-73698.386908
1872.656092,-19245.354492,-6661.853478,-74311.263306
1872.658631,36270.091158,-22354.219448,-87334.886772
1872.661171,-45300.603650,22206.178260,-67109.965625
1872.663710,38638.750172,-27091.537477,-90092.830565
1872.666250,-43228.027013,2960.823768,-66803.527426
1872.668789,20429.683999,-24130.713709,-84730.162079
1872.671329,-18505.148550,8290.306550,-65271.336430
1872.673868,31384.731941,-11547.212695,-84270.504780
1872.676407,-14508.036463,10807.006753,-74770.920605
1872.678947,19393.395680,-6957.935855,-79827.150892
1872.681486,-11103.089130,-3404.947333,-73698.386908
1872.684026,740.205942,-4885.359217,-80286.808190
1872.686565,-11103.089130,740.205942,-75537.016103
1872.689104,-888.247130,-13175.665768,-79520.712692
1872.691644,11547.212695,-12583.501014,-78294.959896
1872.694183,-5477.523971,-4293.194464,-75537.016103
1872.696723,-9918.759623,-19245.354492,-78448.178995
1872.699262,-15100.201217,4293.194464,-74311.263306
1872.701802,19689.478057,-24426.796086,-85036.600278
1872.704341,-37602.461854,1036.288319,-68488.937521
1872.706880,58772.351795,-6809.894666,-81818.999186
1872.709429,-22502.260637,5329.482782,-70480.785816
1872.711977,26499.372724,-15692.365970,-82738.313784
1872.714526,-2516.700203,2812.782580,-79827.150892
1872.717075,26795.455100,-5181.441594,-70174.347617
1872.719623,-22650.301825,8586.388927,-87488.105872
1872.722172,11251.130318,7105.977043,-75537.016103
1872.724720,-1776.494261,3108.864956,-78907.836294
1872.727269,-16728.654289,-444.123565,-72319.415011
1872.729817,15396.283594,-4885.359217,-78448.178995
1872.732366,-32717.102636,13323.706956,-76456.330700
1872.734914,7698.141797,-9770.718434,-83657.628382
1872.737463,-8586.388927,23538.548956,-69255.033019
1872.740011,14359.995275,-16580.613101,-87488.105872
1872.742560,-11103.089130,19393.395680,-65118.117330
1872.745109,22946.384202,-4589.276840,-85802.695776
1872.747657,-24426.796086,6217.729913,-70940.443115
1872.750206,12879.583391,-5625.565159,-83044.751983
1872.752754,-12139.377449,5921.647536,-77528.864398
1872.755303,10214.842000,3256.906145,-75996.673402
1872.757851,-3701.029710,4885.359217,-80133.589091
1872.760400,296.082377,740.205942,-83351.190182
1872.762948,-888.247130,7254.018232,-73238.729609
1872.765497,-7846.182985,3701.029710,-75230.577904
1872.768045,-8734.430116,-1628.453072,-77375.645298
1872.770594,-15248.242405,11399.171507,-73698.386908
1872.773143,29312.155303,-9770.718434,-83351.190182
1872.775691,-25167.002028,7550.100608,-65884.212828
1872.778240,19689.478057,592.164754,-74158.044206
1872.780788,-3404.947333,444.123565,-75230.577904
1872.783337,6957.935855,-17912.983796,-79061.055394
1872.785885,18357.107362,11695.253884,-70480.785816
1872.788434,3256.906145,-11251.130318,-76149.892501
1872.790982,16136.489536,444.123565,-74924.139704
1872.793531,6809.894666,-6217.729913,-77528.864398
1872.796079,-21910.095883,-17468.860231,-79061.055394
1872.798628,20281.642811,1924.535449,-74311.263306
1872.801176,-13915.871710,-6217.729913,-74311.263306
1872.803725,-2072.576638,296.082377,-73545.167808
1872.806274,14952.160028,-34937.720462,-85189.819378
1872.808822,-30496.484810,10510.924376,-64811.679131
1872.811377,30052.361245,-29608.237680,-87028.448573
1872.813932,-35233.802839,18209.066173,-63739.145434
1872.816487,22946.384202,-13619.789333,-86568.791274
1872.819042,-13175.665768,8586.388927,-66037.431928
1872.821597,30792.567187,-21169.889941,-83504.409282
1872.824151,-9474.636058,4737.318029,-71706.538613
1872.826706,13027.624579,-3404.947333,-76303.111601
1872.829261,-13175.665768,-6809.894666,-77528.864398
1872.831816,8882.471304,-13027.624579,-79061.055394
1872.834371,-11251.130318,-7846.182985,-74770.920605
1872.836926,-148.041188,-12287.418637,-76303.111601
1872.839481,-6069.688724,-12731.542202,-77988.521696
1872.842036,6957.935855,-7550.100608,-75843.454302
1872.844591,-5921.647536,-17172.777854,-76762.768900
1872.847145,-17468.860231,13915.871710,-73545.167808
1872.849700,20873.807564,-13471.748144,-82125.437386
1872.852255,-37454.420665,5181.441594,-71859.757712
1872.854810,63805.752200,-20725.766376,-86415.572174
1872.857365,-15692.365970,12879.583391,-63432.707234
1872.859920,28571.949361,-3701.029710,-76303.111601
1872.862475,-29460.196492,-444.123565,-82738.313784
1872.865030,25167.002028,11251.130318,-66037.431928
1872.867585,-20429.683999,444.123565,-82585.094684
1872.870139,17320.819043,-2812.782580,-81206.122788
1872.872694,1776.494261,18505.148550,-76456.330700
1872.875249,-26647.413912,21762.054695,-70021.128517
1872.877804,3404.947333,-15988.448347,-85649.476676
1872.880359,-14211.954086,17172.777854,-69255.033019
1872.882914,7550.100608,-10510.924376,-82278.656485
1872.885469,-19541.436869,14656.077652,-67263.184724
1872.888024,29904.320057,-14952.160028,-82278.656485
1872.890579,-21910.095883,16876.695478,-69561.471218
1872.893133,26351.331535,-11843.295072,-85496.257577
1872.895688,-16136.489536,11251.130318,-69255.033019
1872.898243,18209.066173,-2960.823768,-83504.409282
1872.900798,-5329.482782,8586.388927,-76762.768900
1872.903353,13915.871710,2220.617826,-78907.836294
1872.905908,-6661.853478,3997.112087,-80746.465489
1872.908463,-8882.471304,2664.741391,-78754.617194
1872.911018,11991.336260,1480.411884,-76915.987999
1872.913578,-23982.672521,1184.329507,-75996.673402
1872.916138,-9178.553681,-2960.823768,-75230.577904
1872.918698,8586.388927,-296.082377,-77528.864398
1872.921258,-11103.089130,-16580.613101,-78448.178995
1872.923818,15840.407159,23242.466579,-64658.460031
1872.926378,5625.565159,-740.205942,-72472.634111
1872.928938,-10807.006753,8290.306550,-68029.280222
1872.931498,22058.137072,-10362.883188,-74464.482406
1872.934058,-21021.848753,-10066.800811,-71706.538613
1872.936618,43524.109390,-11399.171507,-86109.133975
1872.939178,-27683.702231,10658.965565,-71553.319513
1872.941738,39082.873738,-16876.695478,-86415.572174
1872.944298,-28868.031738,-3849.070898,-76456.330700
1872.946858,6217.729913,-9178.553681,-80593.246390
1872.949419,-11843.295072,-4885.359217,-73391.948708
1872.951979,-19689.478057,6217.729913,-70327.566716
1872.954539,19097.313304,-12287.418637,-82738.313784
1872.957099,-23982.672521,19541.436869,-66497.089226
1872.959659,23390.507767,-19541.436869,-84883.381178
1872.962219,-32569.061448,11103.089130,-66956.746525
1872.964779,24722.878463,-23390.507767,-88560.639569
1872.967339,-11695.253884,2072.576638,-68795.375720
1872.969899,27535.661042,-24130.713709,-82278.656485
1872.972459,-5477.523971,592.164754,-71400.100414
1872.975019,24574.837274,-7550.100608,-76609.549800
1872.977579,-8290.306550,-5181.441594,-74924.139704
1872.980139,-15100.201217,-14508.036463,-77988.521696
1872.982699,43968.232955,-9918.759623,-80440.027290
1872.985259,-23094.425390,20725.766376,-64964.898230
1872.987819,3552.988522,-23834.631332,-91625.021561
1872.990379,4145.153275,11399.171507,-66037.431928
1872.992939,-25907.207970,-11695.253884,-94995.841752
1872.995503,27831.743419,2072.576638,-75843.454302
1872.998066,3256.906145,-1480.411884,-74004.825107
1873.000629,-16728.654289,11843.295072,-72012.976812
1873.003193,19689.478057,-8142.265362,-85343.038477
1873.005756,-14063.912898,5033.400406,-75843.454302
1873.008319,16284.530724,10807.006753,-79520.712692
1873.010883,-21910.095883,5921.647536,-79061.055394
1873.013446,-1924.535449,-2368.659014,-80899.684589
1873.016009,-3701.029710,-4293.194464,-78907.836294
1873.018573,-9326.594869,1332.370696,-75230.577904
1873.021136,14211.954086,-11695.253884,-77682.083497
1873.023699,-20429.683999,12583.501014,-72472.634111
1873.026263,13027.624579,-17468.860231,-83044.751983
1873.028826,-20133.601622,9474.636058,-70174.347617
1873.031389,23982.672521,-4885.359217,-79367.493593
1873.033952,-5181.441594,6957.935855,-75230.577904
1873.036516,24722.878463,444.123565,-79673.931792
1873.039079,-3849.070898,11399.171507,-78601.398095
1873.041642,18653.189738,-2220.617826,-77835.302597
1873.044206,-22946.384202,20281.642811,-75537.016103
1873.046769,27535.661042,0.000000,-81818.999186
1873.049332,-19541.436869,-4737.318029,-80286.808190
1873.051896,-1480.411884,3256.906145,-79367.493593
1873.054459,-5477.523971,-19985.560434,-82431.875585
1873.057022,-18653.189738,1332.370696,-78754.617194
1873.059586,29164.114115,-29904.320057,-94995.841752
1873.062149,-29756.278868,19985.560434,-68948.594820
1873.064712,22354.219448,-23242.466579,-86262.353075
1873.067275,-13323.706956,6809.894666,-63279.488135
1873.069839,28571.949361,-22798.343014,-85496.257577
1873.072402,2812.782580,888.247130,-70174.347617
1873.074965,13471.748144,-6365.771101,-79827.150892
1873.077529,-11843.295072,4737.318029,-72932.291410
1873.080092,6809.894666,-14804.118840,-76762.768900
1873.082655,-17616.901420,-8882.471304,-75690.235202
1873.085219,13915.871710,-11991.336260,-80133.589091
1873.087782,-3404.947333,-11399.171507,-78141.740796
1873.090345,-6365.771101,3552.988522,-74464.482406
1873.092909,6661.853478,-14211.954086,-81665.780087
1873.095472,-27831.743419,5181.441594,-73238.729609
1873.098037,7846.182985,-17616.901420,-81818.999186
1873.100603,-19689.478057,148.041188,-70634.004916
1873.103170,33457.308578,-26647.413912,-84730.162079
1873.105737,-13767.830521,1924.535449,-71093.662214
1873.108303,26055.249158,-14508.036463,-78754.617194
1873.110870,-23242.466579,-8882.471304,-72932.291410
1873.113436,37454.420665,-14952.160028,-78754.617194
1873.116003,-22354.219448,7846.182985,-76762.768900
1873.118569,10510.924376,-5625.565159,-80133.589091
1873.121136,0.000000,-296.082377,-79980.369991
1873.123702,8882.471304,2368.659014,-78448.178995
1873.126269,9326.594869,-4885.359217,-77069.207099
1873.128835,-27239.578666,16432.571912,-74617.701505
1873.131402,9622.677246,-16432.571912,-85649.476676
1873.133968,-15544.324782,16136.489536,-65271.336430
1873.136535,29312.155303,-8734.430116,-85649.476676
1873.139101,-10955.047942,17024.736666,-63279.488135
1873.141668,6957.935855,-12435.459826,-82738.313784
1873.144234,-8586.388927,21169.889941,-74311.263306
1873.146801,21762.054695,0.000000,-76456.330700
1873.149367,-17172.777854,3849.070898,-74924.139704
1873.151934,30644.525999,-6661.853478,-83197.971083
1873.154500,-5625.565159,4737.318029,-77682.083497
1873.157067,3256.906145,-2812.782580,-79214.274493
1873.159634,-148.041188,1184.329507,-74770.920605
1873.162200,-17912.983796,1924.535449,-75230.577904
1873.164767,2812.782580,-6957.935855,-76149.892501
1873.167333,-11547.212695,5773.606348,-75537.016103
1873.169900,12879.583391,-2516.700203,-77069.207099
1873.172466,-19985.560434,16136.489536,-73391.948708
1873.175033,13619.789333,-12879.583391,-85343.038477
1873.177599,-29904.320057,29756.278868,-67109.965625
1873.180166,19097.313304,-4293.194464,-84576.942979
1873.182732,148.041188,-7254.018232,-78294.959896
1873.185299,21614.013506,1036.288319,-72319.415011
1873.187865,-24130.713709,-3552.988522,-80440.027290
1873.190432,26203.290347,-15692.365970,-82125.437386
1873.192998,1332.370696,3552.988522,-77375.645298
1873.195565,-2516.700203,1924.535449,-76303.111601
1873.198131,-9030.512492,5329.482782,-71553.319513
1873.200699,10362.883188,-12583.501014,-80440.027290
1873.203267,-888.247130,-14804.118840,-83657.628382
1873.205834,-4293.194464,4145.153275,-72012.976812
1873.208402,7846.182985,-14508.036463,-84270.504780
1873.210969,-25759.166782,17024.736666,-64811.679131
1873.213537,18209.066173,-30644.525999,-85955.914876
1873.216105,-26943.496289,11695.253884,-64198.802732
1873.218672,34641.638086,-23538.548956,-89479.954166
1873.221240,-4293.194464,6513.812290,-66037.431928
1873.223807,23390.507767,-9178.553681,-79367.493593
1873.226375,-7105.977043,6513.812290,-72932.291410
1873.228943,5625.565159,-8734.430116,-74464.482406
1873.231510,-8290.306550,-2368.659014,-74311.263306
1873.234078,740.205942,-11991.336260,-78141.740796
1873.236645,4589.276840,-19541.436869,-78907.836294
1873.239213,-8586.388927,-6809.894666,-77069.207099
1873.241781,-3849.070898,-12731.542202,-78754.617194
1873.244348,-7698.141797,-11103.089130,-74004.825107
1873.246916,-14508.036463,-22354.219448,-80746.465489
1873.249483,5625.565159,9918.759623,-73545.167808
1873.252051,10066.800811,-14063.912898,-85036.600278
1873.254619,-38046.585419,5477.523971,-73698.386908
1873.257186,52406.580694,-12435.459826,-79673.931792
1873.259754,-53590.910201,2368.659014,-70787.224015
1873.262322,59068.434172,-7550.100608,-85496.257577
1873.264889,-37158.338288,8142.265362,-70174.347617
1873.267457,26795.455100,3404.947333,-76303.111601
1873.270024,-14359.995275,5773.606348,-74464.482406
1873.272592,25315.043216,-1924.535449,-85955.914876
1873.275160,-26795.455100,9770.718434,-77528.864398
1873.277727,14063.912898,1776.494261,-81359.341888
1873.280295,17468.860231,-10214.842000,-77988.521696
1873.282862,-25611.125593,19689.478057,-63892.364533
1873.285430,21910.095883,-17172.777854,-89173.515967
1873.287998,-18357.107362,21614.013506,-63585.926334
1873.290565,22206.178260,-13767.830521,-81206.122788
1873.293133,-25463.084405,11991.336260,-71093.662214
1873.295700,30940.608376,-8882.471304,-78754.617194
1873.298268,-17764.942608,9030.512492,-71859.757712
1873.300836,23834.631332,-7550.100608,-82738.313784
1873.303404,2960.823768,7846.182985,-81206.122788
1873.305973,4145.153275,5625.565159,-79214.274493
1873.308541,-16284.530724,12583.501014,-77069.207099
1873.311110,14359.995275,3404.947333,-79673.931792
1873.313678,-7846.182985,-11695.253884,-77222.426198
1873.316247,-17172.777854,-1184.329507,-77222.426198
1873.318815,21317.931130,-16580.613101,-78754.617194
1873.321384,-32124.937883,444.123565,-73391.948708
1873.323953,30792.567187,-6809.894666,-83504.409282
1873.326521,-43968.232955,8734.430116,-62819.830836
1873.329090,21614.013506,-18653.189738,-85955.914876
1873.331658,-1924.535449,-7550.100608,-73085.510509
1873.334227,25018.960840,-11695.253884,-75383.797003
1873.336795,7846.182985,-9030.512492,-80440.027290
1873.339364,19689.478057,444.123565,-73698.386908
1873.341932,-2368.659014,-5773.606348,-77988.521696
1873.344501,4737.318029,-21465.972318,-79827.150892
1873.347070,-18653.189738,888.247130,-74311.263306
1873.349638,13619.789333,-10510.924376,-79520.712692
1873.352207,-5773.606348,-2960.823768,-77069.207099
1873.354775,9622.677246,21762.054695,-63585.926334
1873.357344,24426.796086,-23982.672521,-83964.066581
1873.359912,-29164.114115,11695.253884,-66650.308326
1873.362481,12879.583391,-20281.642811,-85496.257577
1873.365049,-12435.459826,2664.741391,-64964.898230
1873.367618,19097.313304,-22650.301825,-87028.448573
1873.370187,-12583.501014,6809.894666,-67263.184724
1873.372755,31532.773129,-25018.960840,-81512.560987
1873.375324,-4885.359217,-3404.947333,-73085.510509
1873.377892,8438.347739,-8586.388927,-76762.768900
1873.380461,888.247130,3701.029710,-74311.263306
1873.383029,30052.361245,-12435.459826,-85343.038477
1873.385598,-28127.825796,3997.112087,-73851.606007
1873.388166,43228.027013,-17616.901420,-81512.560987
1873.390735,-37898.544230,19541.436869,-70787.224015
1873.393303,-4441.235652,6957.935855,-71553.319513
1873.395872,-7254.018232,-22502.260637,-91471.802461
1873.398441,-23686.590144,26943.496289,-66343.870127
1873.401009,33309.267390,-5625.565159,-81665.780087
1873.403578,-22798.343014,7402.059420,-75383.797003
1873.406103,28868.031738,5477.523971,-76303.111601
1873.408629,-23242.466579,18061.024985,-74311.263306
1873.411154,-3108.864956,-13619.789333,-86262.353075
1873.413680,-4293.194464,-148.041188,-74004.825107
1873.416206,-1036.288319,444.123565,-78601.398095
1873.418731,-1924.535449,-11991.336260,-81359.341888
1873.421257,-2516.700203,4293.194464,-73238.729609
1873.423782,4441.235652,-9474.636058,-78448.178995
1873.426308,-34049.473332,14063.912898,-70021.128517
1873.428834,14063.912898,-12139.377449,-84423.723880
1873.431359,-3552.988522,16136.489536,-70940.443115
1873.433885,19837.519246,-5033.400406,-82738.313784
1873.436410,1184.329507,14952.160028,-72166.195912
1873.438936,31532.773129,5033.400406,-82585.094684
1873.441462,-24426.796086,-3404.947333,-83504.409282
1873.443987,3404.947333,3404.947333,-72625.853210
1873.446513,4441.235652,1480.411884,-80440.027290
1873.449038,6513.812290,-13915.871710,-78294.959896
1873.451564,23834.631332,20577.725188,-70940.443115
1873.454090,-14804.118840,-11843.295072,-77682.083497
1873.456615,6217.729913,-26203.290347,-85649.476676
1873.459141,-17764.942608,6809.894666,-64811.679131
1873.461666,3108.864956,-23242.466579,-85955.914876
1873.464192,-1332.370696,8438.347739,-70634.004916
1873.466718,7698.141797,-9474.636058,-82125.437386
1873.469243,-3256.906145,-1036.288319,-77682.083497
1873.471769,23982.672521,-28423.908173,-84423.723880
1873.474294,-25463.084405,6661.853478,-66803.527426
1873.476820,22798.343014,-16580.613101,-81665.780087
1873.479346,-8586.388927,1924.535449,-69408.252119
1873.481871,6661.853478,-2072.576638,-78141.740796
1873.484397,4737.318029,-3997.112087,-76915.987999
1873.486922,-2664.741391,-6513.812290,-77069.207099
1873.489448,-7550.100608,-9474.636058,-76609.549800
1873.491974,-14804.118840,-3552.988522,-75383.797003
1873.494499,-2516.700203,-17172.777854,-77835.302597
1873.497025,-18357.107362,-3256.906145,-75230.577904
1873.499550,22650.301825,-31532.773129,-81972.218286
1873.502076,-11843.295072,3108.864956,-64964.898230
1873.504602,12287.418637,-7105.977043,-83964.066581
1873.507137,-13767.830521,11843.295072,-66956.746525
1873.509673,4737.318029,-16284.530724,-80899.684589
1873.512208,8290.306550,-1776.494261,-77069.207099
1873.514744,-2220.617826,-3108.864956,-70634.004916
1873.517280,2812.782580,-1036.288319,-86722.010374
1873.519815,15396.283594,5773.606348,-73391.948708
1873.522351,-5181.441594,7254.018232,-78754.617194
1873.524886,-13471.748144,-888.247130,-85955.914876
1873.527422,2664.741391,13323.706956,-70327.566716
1873.529957,1776.494261,-12287.418637,-72625.853210
1873.532493,33309.267390,-10807.006753,-86262.353075
1873.535029,-28868.031738,33013.185013,-64198.802732
1873.537564,21021.848753,-15840.407159,-85802.695776
1873.540100,-21614.013506,15100.201217,-69408.252119
1873.542635,20133.601622,-9918.759623,-84423.723880
1873.545171,-14211.954086,9474.636058,-66650.308326
1873.547706,39675.038491,-11695.253884,-80133.589091
1873.550242,-7254.018232,9622.677246,-73085.510509
1873.552778,23982.672521,2072.576638,-74311.263306
1873.555313,-16432.571912,10658.965565,-76915.987999
1873.557849,-8142.265362,-444.123565,-82431.875585
1873.560384,-11991.336260,6661.853478,-77069.207099
1873.562920,16432.571912,7254.018232,-78141.740796
1873.565456,-6217.729913,-7846.182985,-79980.369991
1873.567991,-8586.388927,10214.842000,-68335.718422
1873.570527,17172.777854,-16136.489536,-84270.504780
1873.573062,-63509.669824,11251.130318,-65118.117330
1873.575598,33161.226202,-4293.194464,-80440.027290
1873.578133,-55811.528027,3701.029710,-71246.881314
1873.580669,54331.116143,-14804.118840,-83810.847481
1873.583205,-35825.967593,-592.164754,-78294.959896
1873.585740,33901.432144,-28423.908173,-85496.257577
1873.588276,-28719.990550,6069.688724,-77682.083497
1873.590811,22206.178260,-9622.677246,-86568.791274
1873.593347,-11843.295072,-3997.112087,-81665.780087
1873.595883,18653.189738,1332.370696,-74311.263306
1873.598418,-21465.972318,-3849.070898,-79673.931792
1873.600954,5033.400406,-13915.871710,-80746.465489
1873.603489,-9918.759623,-2812.782580,-74464.482406
1873.606025,-10362.883188,-5625.565159,-66650.308326
1873.608526,28719.990550,-26055.249158,-86262.353075
1873.611028,-14952.160028,12583.501014,-68029.280222
1873.613530,23390.507767,-15692.365970,-84423.723880
1873.616031,-6957.935855,-6513.812290,-75383.797003
1873.618533,17764.942608,-18505.148550,-81512.560987
1873.621035,-13323.706956,-1184.329507,-71093.662214
1873.623536,28868.031738,-25315.043216,-74770.920605
1873.626038,-19541.436869,-8142.265362,-73545.167808
1873.628539,34641.638086,-2812.782580,-81665.780087
1873.631041,-4737.318029,-6661.853478,-80286.808190
1873.633543,-20429.683999,-11991.336260,-80593.246390
1873.636044,23982.672521,-6069.688724,-70480.785816
1873.638546,-21465.972318,-592.164754,-65884.212828
1873.641047,-1184.329507,-4293.194464,-76762.768900
1873.643549,-11251.130318,16432.571912,-61747.297139
1873.646051,30496.484810,-19245.354492,-85036.600278
1873.648552,-29608.237680,25018.960840,-72166.195912
1873.651054,30348.443622,-10362.883188,-81818.999186
1873.653556,-37898.544230,17912.983796,-65884.212828
1873.656057,28719.990550,9474.636058,-71246.881314
1873.658559,-20577.725188,17468.860231,-74770.920605
1873.661060,25463.084405,-11695.253884,-84270.504780
1873.663562,-8290.306550,5477.523971,-73698.386908
1873.666064,6217.729913,1036.288319,-79367.493593
1873.668565,-12139.377449,296.082377,-76303.111601
1873.671067,888.247130,-1332.370696,-77835.302597
1873.673568,-2220.617826,-5625.565159,-79827.150892
1873.676070,-12139.377449,9326.594869,-72779.072310
1873.678572,8438.347739,-7994.224174,-81052.903688
1873.681073,-10955.047942,20281.642811,-68795.375720
1873.683575,18209.066173,-1924.535449,-86415.572174
1873.686077,-5773.606348,16432.571912,-70480.785816
1873.688578,30052.361245,-12731.542202,-81206.122788
1873.691080,-28868.031738,6809.894666,-73085.510509
1873.693581,52554.621882,-11695.253884,-79061.055394
1873.696083,-25759.166782,-2960.823768,-74464.482406
1873.698585,36122.049970,16136.489536,-70634.004916
1873.701086,-38638.750172,-14063.912898,-76762.768900
1873.703588,49445.756926,-6957.935855,-74158.044206
1873.706089,-7846.182985,-13175.665768,-75843.454302
1873.708566,-18209.066173,-9326.594869,-73391.948708
1873.711043,29164.114115,-21614.013506,-85036.600278
1873.713519,-41599.573940,15396.283594,-67569.622924
1873.715996,35677.926404,-33605.349767,-89939.611465
1873.718472,-34345.555709,7550.100608,-66650.308326
1873.720949,21021.848753,-21021.848753,-80440.027290
1873.723425,-22946.384202,7698.141797,-66497.089226
1873.725902,28423.908173,-16580.613101,-86109.133975
1873.728378,-12139.377449,3404.947333,-77988.521696
1873.730855,25167.002028,-4589.276840,-84883.381178
1873.733331,-22206.178260,2812.782580,-73851.606007
1873.735808,6661.853478,-17912.983796,-83810.847481
1873.738284,-14656.077652,-5033.400406,-74158.044206
1873.740761,3108.864956,-10955.047942,-77222.426198
1873.743237,-8438.347739,-18801.230927,-77069.207099
1873.745714,8142.265362,-9326.594869,-76456.330700
1873.748190,-5477.523971,-15248.242405,-79980.369991
1873.750667,-16728.654289,2072.576638,-79367.493593
1873.753143,38194.626607,-16876.695478,-85955.914876
1873.755620,-24130.713709,10955.047942,-69101.813920
1873.758096,64249.875766,-28719.990550,-86875.229473
1873.760573,-23982.672521,30200.402434,-63126.269035
1873.763050,28719.990550,3108.864956,-77682.083497
1873.765526,-23390.507767,592.164754,-83044.751983
1873.768003,20725.766376,11103.089130,-70480.785816
1873.770479,-25315.043216,-740.205942,-80440.027290
1873.772956,24574.837274,4737.318029,-77069.207099
1873.775432,-11843.295072,11547.212695,-77222.426198
1873.777909,-13323.706956,11399.171507,-71246.881314
1873.780385,20133.601622,-17024.736666,-85036.600278
1873.782862,-38934.832549,21614.013506,-67569.622924
1873.785338,12731.542202,-16284.530724,-83504.409282
1873.787815,-21614.013506,15544.324782,-67263.184724
1873.790291,35825.967593,-12287.418637,-85955.914876
1873.792768,-23686.590144,24278.754898,-65884.212828
1873.795244,32717.102636,-7550.100608,-83504.409282
1873.797721,-15544.324782,14211.954086,-71859.757712
1873.800197,11695.253884,-3256.906145,-87028.448573
1873.802674,-18949.272115,14211.954086,-77988.521696
1873.805150,34049.473332,1776.494261,-83351.190182
1873.807649,-16580.613101,-740.205942,-78294.959896
1873.810148,-34197.514520,15396.283594,-68182.499322
1873.812646,9474.636058,-19541.436869,-87794.544071
1873.815145,-21021.848753,7698.141797,-75537.016103
1873.817644,30792.567187,-12583.501014,-88254.201370
1873.820142,-27979.784608,16580.613101,-59755.448844
1873.822641,48705.550984,-23982.672521,-82125.437386
1873.825139,-9918.759623,1776.494261,-64198.802732
1873.827638,19837.519246,-18505.148550,-73698.386908
1873.830137,4885.359217,-1480.411884,-72472.634111
1873.832635,-10066.800811,-740.205942,-75383.797003
1873.835134,11843.295072,-5477.523971,-75843.454302
1873.837632,-6661.853478,-22502.260637,-77988.521696
1873.840131,-4885.359217,-12287.418637,-73238.729609
1873.842630,-2664.741391,-11251.130318,-78601.398095
1873.845128,2960.823768,-12731.542202,-77682.083497
1873.847627,-27239.578666,6661.853478,-73238.729609
1873.850126,18209.066173,-20133.601622,-80440.027290
1873.852624,-24130.713709,12435.459826,-69561.471218
1873.855123,24870.919651,-17912.983796,-82585.094684
1873.857621,-13027.624579,-2368.659014,-74464.482406
1873.860120,19245.354492,-18653.189738,-79520.712692
1873.862619,-1480.411884,-5033.400406,-71859.757712
1873.865117,20429.683999,-19689.478057,-78754.617194
1873.867616,-3701.029710,8586.388927,-72319.415011
1873.870114,21169.889941,-3552.988522,-79673.931792
1873.872613,-37010.297100,-3849.070898,-80133.589091
1873.875112,27239.578666,-8882.471304,-81512.560987
1873.877610,-36862.255912,-444.123565,-93003.993457
1873.880109,23094.425390,3849.070898,-77835.302597
1873.882608,-7402.059420,-1184.329507,-79214.274493
1873.885106,-19837.519246,26647.413912,-64964.898230
1873.887605,28275.866984,-15840.407159,-81512.560987
1873.890103,-9622.677246,19097.313304,-70940.443115
1873.892602,20873.807564,-13767.830521,-88713.858668
1873.895101,-8142.265362,9770.718434,-72932.291410
1873.897599,17616.901420,7105.977043,-76609.549800
1873.900098,-6513.812290,1628.453072,-75077.358804
1873.902596,25315.043216,-8586.388927,-78601.398095
1873.905095,2664.741391,1776.494261,-75077.358804
1873.907611,-8586.388927,-2072.576638,-75077.358804
1873.910127,-2368.659014,-3849.070898,-76303.111601
1873.912643,-6809.894666,5329.482782,-77528.864398
1873.915159,-6513.812290,-5033.400406,-75230.577904
1873.917675,-16580.613101,13767.830521,-76149.892501
1873.920191,16136.489536,-1480.411884,-85496.257577
1873.922707,-9326.594869,21169.889941,-66497.089226
1873.925223,15248.242405,-15396.283594,-86262.353075
1873.927739,-15544.324782,8142.265362,-69101.813920
1873.930255,21021.848753,-12879.583391,-78141.740796
1873.932771,-23094.425390,-5329.482782,-81512.560987
1873.935287,54775.239708,6957.935855,-76609.549800
1873.937803,-27831.743419,-2664.741391,-74770.920605
1873.940319,42635.862259,-10214.842000,-79520.712692
1873.942835,-29460.196492,3997.112087,-69867.909418
1873.945351,1924.535449,-28719.990550,-80746.465489
1873.947867,-9918.759623,0.000000,-74770.920605
1873.950383,-3997.112087,-3997.112087,-79980.369991
1873.952899,35677.926404,-29312.155303,-90858.926063
1873.955415,-24574.837274,7698.141797,-64964.898230
1873.957931,20133.601622,-18801.230927,-82891.532884
1873.960447,-29756.278868,6069.688724,-68182.499322
1873.962963,28571.949361,-20133.601622,-88100.982270
1873.965479,-11843.295072,15544.324782,-64658.460031
1873.967995,42635.862259,-16432.571912,-85802.695776
1873.970511,-15100.201217,1628.453072,-71246.881314
1873.973027,24130.713709,-14952.160028,-79520.712692
1873.975543,-9030.512492,-7846.182985,-78294.959896
1873.978059,-9474.636058,-20281.642811,-77069.207099
1873.980575,3997.112087,-16136.489536,-73545.167808
1873.983091,1184.329507,-6809.894666,-74158.044206
1873.985607,2072.576638,-11843.295072,-75843.454302
1873.988123,-4885.359217,9178.553681,-72319.415011
1873.990639,-17320.819043,-19541.436869,-87794.544071
1873.993155,-10066.800811,592.164754,-71246.881314
1873.995671,-22058.137072,-13767.830521,-84270.504780
1873.998187,18505.148550,5477.523971,-77528.864398
1874.000703,-1480.411884,-2812.782580,-80899.684589
1874.003219,0.000000,12731.542202,-83964.066581
1874.005735,7254.018232,1332.370696,-74464.482406
1874.008265,-15396.283594,11399.171507,-78754.617194
1874.010796,11991.336260,5477.523971,-78907.836294
1874.013326,-6661.853478,6661.853478,-75537.016103
1874.015856,5181.441594,6957.935855,-81818.999186
1874.018386,-4293.194464,-148.041188,-75690.235202
1874.020917,3404.947333,-3701.029710,-78754.617194
1874.023447,-9178.553681,-2072.576638,-77835.302597
1874.025977,-17320.819043,-2368.659014,-77682.083497
1874.028507,12435.459826,-14952.160028,-87794.544071
1874.031038,-8438.347739,18357.107362,-69408.252119
1874.033568,29608.237680,-6957.935855,-85189.819378
1874.036098,-18209.066173,18653.189738,-71246.881314
1874.038628,32272.979071,4589.276840,-84423.723880
1874.041159,-14063.912898,14656.077652,-72012.976812
1874.043689,22354.219448,-10362.883188,-80440.027290
1874.046219,-13027.624579,9622.677246,-72319.415011
1874.048749,7402.059420,-13471.748144,-79214.274493
1874.051280,23982.672521,-2960.823768,-76609.549800
1874.053810,-27831.743419,-5921.647536,-73851.606007
1874.056340,28571.949361,-21169.889941,-75843.454302
1874.058870,-31828.855506,-3552.988522,-70021.128517
1874.061401,19985.560434,-29164.114115,-75996.673402
1874.063931,-43820.191766,12435.459826,-63126.269035
1874.066461,43524.109390,-18209.066173,-88407.420469
1874.068991,-27091.537477,21465.972318,-68488.937521
1874.071521,31828.855506,-22354.219448,-89786.392366
1874.074052,-33901.432144,6513.812290,-65730.993728
1874.076582,17320.819043,-12139.377449,-75843.454302
1874.079112,-14952.160028,592.164754,-78754.617194
1874.081642,23982.672521,-6661.853478,-81665.780087
1874.084173,-8142.265362,6661.853478,-78141.740796
1874.086703,6957.935855,-4589.276840,-78448.178995
1874.089233,-3997.112087,-12435.459826,-78907.836294
1874.091763,-6957.935855,-14508.036463,-75230.577904
1874.094294,-13027.624579,-13915.871710,-76149.892501
1874.096824,3849.070898,-14211.954086,-75077.358804
1874.099354,5477.523971,-26795.455100,-79520.712692
1874.101884,-20281.642811,17764.942608,-68795.375720
1874.104415,40415.244433,-9474.636058,-79214.274493
1874.106945,-52258.539505,4589.276840,-71553.319513
1874.109487,38046.585419,-10362.883188,-82125.437386
1874.112029,-35825.967593,1184.329507,-70940.443115
1874.114570,51370.292375,-12583.501014,-85955.914876
1874.117111,-26351.331535,23686.590144,-66803.527426
1874.119653,36122.049970,-296.082377,-80593.246390
1874.122194,-23982.672521,9178.553681,-77528.864398
1874.124735,15396.283594,7698.141797,-76303.111601
1874.127277,3404.947333,-11695.253884,-77528.864398
1874.129818,-5921.647536,11547.212695,-74770.920605
1874.132359,4293.194464,-2516.700203,-78601.398095
1874.134901,-18357.107362,10955.047942,-69561.471218
1874.137442,16876.695478,-19541.436869,-91165.364262
1874.139983,-30940.608376,20873.807564,-64964.898230
1874.142524,21021.848753,-16580.613101,-81818.999186
1874.145066,-12583.501014,18653.189738,-67263.184724
1874.147607,30496.484810,-7846.182985,-82891.532884
1874.150148,-9622.677246,10214.842000,-76303.111601
1874.152690,5181.441594,9770.718434,-82125.437386
1874.155231,-10510.924376,18061.024985,-76915.987999
1874.157772,8586.388927,1924.535449,-77988.521696
1874.160314,-10214.842000,4441.235652,-71859.757712
1874.162855,17172.777854,-7698.141797,-79214.274493
1874.165396,-40859.367998,-11843.295072,-79214.274493
1874.167938,12731.542202,-1184.329507,-84270.504780
1874.170479,6069.688724,-19541.436869,-82431.875585
1874.173020,-26203.290347,11251.130318,-74924.139704
1874.175562,13619.789333,-21762.054695,-82278.656485
1874.178103,-7846.182985,-12287.418637,-69867.909418
1874.180644,11251.130318,-7994.224174,-77528.864398
1874.183186,14952.160028,-5033.400406,-75996.673402
1874.185727,23686.590144,-4293.194464,-73391.948708
1874.188268,-12879.583391,3404.947333,-73391.948708
1874.190810,11103.089130,-17024.736666,-75537.016103
1874.193351,-17912.983796,-3552.988522,-75996.673402
1874.195892,15988.448347,-10807.006753,-81972.218286
1874.198434,-888.247130,-4589.276840,-80286.808190
1874.200975,-17912.983796,3108.864956,-73698.386908
1874.203516,7846.182985,-11695.253884,-78601.398095
1874.206058,-27831.743419,9474.636058,-68488.937521
1874.208599,12435.459826,-31680.814318,-86568.791274
1874.211150,-24426.796086,592.164754,-68488.937521
1874.213700,27831.743419,-29164.114115,-84423.723880
1874.216251,-11991.336260,9770.718434,-68182.499322
1874.218802,24278.754898,-13175.665768,-84423.723880
1874.221352,-2664.741391,10066.800811,-74617.701505
1874.223903,3256.906145,1776.494261,-80133.589091
1874.226453,3552.988522,-7994.224174,-78601.398095
1874.229004,-27979.784608,22354.219448,-64198.802732
1874.231555,13027.624579,-6365.771101,-79673.931792
1874.234105,-14508.036463,8734.430116,-72625.853210
1874.236656,8882.471304,1628.453072,-83810.847481
1874.239207,-26943.496289,17912.983796,-68642.156621
1874.241757,21169.889941,-12287.418637,-82738.313784
1874.244308,-20577.725188,29460.196492,-68488.937521
1874.246859,38786.791361,-15988.448347,-88713.858668
1874.249409,-18505.148550,11695.253884,-69255.033019
1874.251960,9918.759623,2960.823768,-76456.330700
1874.254511,-15692.365970,10362.883188,-70940.443115
1874.257061,-4145.153275,-5329.482782,-78907.836294
1874.259612,1184.329507,3256.906145,-73851.606007
1874.262162,3256.906145,2220.617826,-78754.617194
1874.264713,-2072.576638,-2516.700203,-80593.246390
1874.267264,-21169.889941,9178.553681,-79214.274493
1874.269814,9030.512492,3997.112087,-78448.178995
1874.272365,-16876.695478,17764.942608,-75077.358804
1874.274916,6069.688724,-10658.965565,-84117.285680
1874.277466,7994.224174,12879.583391,-65424.555529
1874.280017,-4441.235652,-19245.354492,-85189.819378
1874.282568,14656.077652,7698.141797,-75996.673402
1874.285118,20133.601622,-13323.706956,-81512.560987
1874.287669,-13767.830521,-296.082377,-85343.038477
1874.290220,13915.871710,-14508.036463,-78907.836294
1874.292739,-888.247130,-5477.523971,-79061.055394
1874.295259,-1184.329507,-2960.823768,-76456.330700
1874.297779,8586.388927,-1480.411884,-76915.987999
1874.300298,-3701.029710,1776.494261,-77988.521696
1874.302818,6661.853478,-9770.718434,-80440.027290
1874.305338,-36714.214723,3701.029710,-67722.842023
1874.307857,19985.560434,-28571.949361,-86568.791274
1874.310377,-20133.601622,13767.830521,-67569.622924
1874.312897,30348.443622,-20725.766376,-88560.639569
1874.315416,-26351.331535,12879.583391,-69408.252119
1874.317936,30052.361245,-11103.089130,-79367.493593
1874.320456,-14359.995275,-1628.453072,-71093.662214
1874.322975,19097.313304,-24574.837274,-83964.066581
1874.325495,-11695.253884,-6217.729913,-70634.004916
1874.328015,15692.365970,-18653.189738,-80899.684589
1874.330534,-6217.729913,148.041188,-78294.959896
1874.333054,-13471.748144,-592.164754,-72472.634111
1874.335574,5033.400406,-8734.430116,-77222.426198
1874.338093,-12287.418637,8882.471304,-77069.207099
1874.340613,21317.931130,-23538.548956,-82738.313784
1874.343133,-30940.608376,25611.125593,-66803.527426
1874.345652,21910.095883,-8734.430116,-86415.572174
1874.348172,-13619.789333,10807.006753,-72472.634111
1874.350692,-888.247130,5625.565159,-81818.999186
1874.353211,-20429.683999,14656.077652,-68335.718422
1874.355731,27831.743419,-6809.894666,-80286.808190
1874.358251,-10658.965565,11843.295072,-76149.892501
1874.360770,30348.443622,-3256.906145,-79061.055394
1874.363290,-13175.665768,-1036.288319,-85343.038477
1874.365810,9770.718434,6217.729913,-73851.606007
1874.368329,-14063.912898,11843.295072,-70787.224015
1874.370849,-4737.318029,-4589.276840,-78754.617194
1874.373369,2368.659014,2072.576638,-73238.729609
1874.375888,-19541.436869,26351.331535,-64964.898230
1874.378408,18061.024985,-7698.141797,-85343.038477
1874.380928,-16136.489536,27091.537477,-71400.100414
1874.383447,19245.354492,-740.205942,-85036.600278
1874.385967,-19097.313304,14952.160028,-70940.443115
1874.388487,18061.024985,-11103.089130,-82125.437386
1874.391007,10807.006753,9030.512492,-69408.252119
1874.393540,8142.265362,-20429.683999,-79061.055394
1874.396074,9474.636058,12583.501014,-71400.100414
1874.398607,-3997.112087,-12287.418637,-79214.274493
1874.401141,26203.290347,2664.741391,-71246.881314
1874.403675,-28275.866984,-7698.141797,-71093.662214
1874.406208,-1332.370696,-27239.578666,-75843.454302
1874.408742,-12879.583391,-1184.329507,-73851.606007
1874.411276,19245.354492,-19985.560434,-79367.493593
1874.413809,-10955.047942,7105.977043,-76303.111601
1874.416343,8290.306550,-10955.047942,-79214.274493
1874.418876,-38342.667796,5773.606348,-64198.802732
1874.421410,25611.125593,-30052.361245,-88867.077768
1874.423944,-22650.301825,17172.777854,-63585.926334
1874.426477,25315.043216,-4441.235652,-75843.454302
1874.429011,-2072.576638,-5773.606348,-78754.617194
1874.431545,16580.613101,-7994.224174,-77835.302597
1874.434078,-15840.407159,-444.123565,-76149.892501
1874.436612,2072.576638,-20133.601622,-76762.768900
1874.439145,8438.347739,-11547.212695,-74464.482406
1874.441679,4885.359217,-7846.182985,-78907.836294
1874.444213,-1924.535449,-5773.606348,-77222.426198
1874.446746,3256.906145,2960.823768,-75383.797003
1874.449280,-35529.885216,-9474.636058,-80746.465489
1874.451814,-14063.912898,-444.123565,-74464.482406
1874.454347,-6365.771101,-11103.089130,-88407.420469
1874.456881,20873.807564,11843.295072,-73851.606007
1874.459414,7698.141797,-11251.130318,-83351.190182
1874.461948,-592.164754,19689.478057,-72625.853210
1874.464482,13471.748144,-3404.947333,-82278.656485
1874.467015,-6809.894666,12879.583391,-75690.235202
1874.469549,16728.654289,-444.123565,-80133.589091
1874.472083,0.000000,3849.070898,-77682.083497
1874.474616,16728.654289,6957.935855,-78141.740796
1874.477150,-1332.370696,-5625.565159,-79673.931792
1874.479684,-14211.954086,6809.894666,-74924.139704
1874.482217,296.082377,-18209.066173,-83810.847481
1874.484751,-17320.819043,14804.118840,-72625.853210
1874.487284,8142.265362,-10510.924376,-84117.285680
1874.489818,-13175.665768,17024.736666,-66956.746525
1874.492352,17320.819043,-8142.265362,-88407.420469
1874.494897,-10362.883188,29312.155303,-66497.089226
1874.497442,22502.260637,-4737.318029,-86722.010374
1874.499988,-25018.960840,20725.766376,-74770.920605
1874.502533,37306.379477,-2220.617826,-74924.139704
1874.505078,-37158.338288,-8882.471304,-77835.302597
1874.507623,34789.679274,8142.265362,-73851.606007
1874.510169,-43228.027013,-8882.471304,-84883.381178
1874.512714,39675.038491,-16728.654289,-89786.392366
1874.515259,-30496.484810,-6365.771101,-74924.139704
1874.517805,7254.018232,-21465.972318,-81206.122788
1874.520350,-18209.066173,-6365.771101,-72625.853210
1874.522895,5181.441594,-7254.018232,-76456.330700
1874.525440,14952.160028,-12879.583391,-83197.971083
1874.527986,-13619.789333,8142.265362,-71553.319513
1874.530531,21021.848753,-19245.354492,-77988.521696
1874.533076,-23538.548956,-2664.741391,-74617.701505
1874.535622,25759.166782,-14211.954086,-78601.398095
1874.538167,-7994.224174,-1184.329507,-75843.454302
1874.540712,29164.114115,-16728.654289,-83657.628382
1874.543257,-5625.565159,2664.741391,-74464.482406
1874.545803,14359.995275,-8586.388927,-74924.139704
1874.548348,-18653.189738,-13471.748144,-80133.589091
1874.550893,23538.548956,-14508.036463,-73085.510509
1874.553439,-1628.453072,-12879.583391,-77375.645298
1874.555984,-24426.796086,740.205942,-71859.757712
1874.558529,45892.768404,-15692.365970,-81512.560987
1874.561074,-52406.580694,22354.219448,-64352.021832
1874.563620,33309.267390,-31088.649564,-89020.296868
1874.566165,-55219.363273,19245.354492,-67876.061123
1874.568710,54923.280896,-10362.883188,-89633.173266
1874.571256,-35825.967593,15248.242405,-68182.499322
1874.573801,38046.585419,5625.565159,-83044.751983
1874.576346,-19985.560434,8586.388927,-78448.178995
1874.578891,20577.725188,3404.947333,-78754.617194
1874.581437,-24870.919651,11547.212695,-75996.673402
1874.583982,9918.759623,-7846.182985,-83504.409282
1874.586527,-16284.530724,8290.306550,-70480.785816
1874.589073,-4589.276840,1776.494261,-78294.959896
1874.591618,13175.665768,-14952.160028,-81052.903688
1874.594163,-22206.178260,10807.006753,-70021.128517
1874.596681,12879.583391,-8882.471304,-80440.027290
1874.599199,-33753.390955,18505.148550,-69867.909418
1874.601716,23242.466579,-4145.153275,-85496.257577
1874.604234,0.000000,18801.230927,-70634.004916
1874.606752,24722.878463,3849.070898,-80440.027290
1874.609269,-2812.782580,1924.535449,-83810.847481
1874.611787,8882.471304,1628.453072,-76149.892501
1874.614305,-9622.677246,888.247130,-78448.178995
1874.616822,10807.006753,-11991.336260,-82585.094684
1874.619340,-1184.329507,16432.571912,-71553.319513
1874.621858,-9622.677246,-15248.242405,-84883.381178
1874.624375,25907.207970,-17468.860231,-81206.122788
1874.626893,-20725.766376,4737.318029,-67109.965625
1874.629411,-3256.906145,-24130.713709,-80593.246390
1874.631929,-13767.830521,6661.853478,-72472.634111
1874.634446,12731.542202,-3108.864956,-75996.673402
1874.636964,0.000000,-8438.347739,-84576.942979
1874.639482,31976.896694,-18061.024985,-79367.493593
1874.641999,-13619.789333,-444.123565,-78754.617194
1874.644517,2664.741391,-9918.759623,-81052.903688
1874.647035,-8290.306550,-2812.782580,-77375.645298
1874.649552,1332.370696,1184.329507,-76303.111601
1874.652070,17468.860231,-11547.212695,-76149.892501
1874.654588,-22798.343014,6809.894666,-67263.184724
1874.657105,18061.024985,-29016.072926,-87794.544071
1874.659623,-15692.365970,4737.318029,-68948.594820
1874.662141,9622.677246,-24278.754898,-85496.257577
1874.664659,-11251.130318,9326.594869,-70174.347617
1874.667176,34789.679274,-9030.512492,-80899.684589
1874.669694,-39230.914926,6661.853478,-74464.482406
1874.672212,56107.610404,-15840.407159,-86109.133975
1874.674729,-42043.697506,2220.617826,-75690.235202
1874.677247,22798.343014,2072.576638,-80899.684589
1874.679765,-31236.690752,1480.411884,-78294.959896
1874.682282,1480.411884,7105.977043,-74617.701505
1874.684800,-3701.029710,-2220.617826,-76609.549800
1874.687318,7698.141797,6217.729913,-80286.808190
1874.689835,-3108.864956,-10658.965565,-79673.931792
1874.692353,-7254.018232,9474.636058,-74924.139704
1874.694871,7698.141797,-5773.606348,-75690.235202
1874.697403,-32569.061448,17024.736666,-67876.061123
1874.699936,20725.766376,-8438.347739,-80133.589091
1874.702468,-12287.418637,4737.318029,-73545.167808
1874.705001,31976.896694,-3701.029710,-79827.150892
1874.707533,-10658.965565,11103.089130,-73238.729609
1874.710066,11547.212695,4589.276840,-79673.931792
1874.712599,-14656.077652,19689.478057,-76303.111601
1874.715131,17616.901420,8438.347739,-78448.178995
1874.717664,-12287.418637,7105.977043,-76149.892501
1874.720196,4885.359217,-1776.494261,-81972.218286
1874.722729,-3849.070898,-11103.089130,-77528.864398
1874.725261,-6957.935855,8734.430116,-72166.195912
1874.727794,25463.084405,-21614.013506,-91165.364262
1874.730326,-38194.626607,13619.789333,-68335.718422
1874.732859,34641.638086,-29016.072926,-84883.381178
1874.735391,5625.565159,-2072.576638,-66190.651027
1874.737924,11843.295072,-15248.242405,-75537.016103
1874.740456,-3404.947333,-1924.535449,-74924.139704
1874.742989,15396.283594,-4737.318029,-78294.959896
1874.745521,-8734.430116,-6661.853478,-81818.999186
1874.748054,24574.837274,-11547.212695,-79827.150892
1874.750586,-13471.748144,-10658.965565,-75230.577904
1874.753119,-15692.365970,-9474.636058,-78907.836294
1874.755652,8882.471304,-21465.972318,-83657.628382
1874.758184,-15840.407159,-444.123565,-71706.538613
1874.760717,4589.276840,-7994.224174,-77375.645298
1874.763249,-32865.143825,5181.441594,-66803.527426
1874.765782,28719.990550,-31088.649564,-83810.847481
1874.768314,-18061.024985,444.123565,-69714.690318
1874.770847,17024.736666,-21169.889941,-86722.010374
1874.773379,-23390.507767,7550.100608,-70174.347617
1874.775912,40711.326810,-10066.800811,-83504.409282
1874.778444,-23094.425390,5181.441594,-80593.246390
1874.780977,34197.514520,-13767.830521,-83810.847481
1874.783509,-28719.990550,15988.448347,-76456.330700
1874.786042,26647.413912,5625.565159,-75077.358804
1874.788574,-17912.983796,0.000000,-85802.695776
1874.791107,3552.988522,9474.636058,-71553.319513
1874.793639,-14211.954086,0.000000,-74311.263306
1874.796172,-6217.729913,4441.235652,-79520.712692
1874.798717,3849.070898,-5329.482782,-76762.768900
1874.801261,-14656.077652,21465.972318,-69101.813920
1874.803806,31236.690752,-11547.212695,-84423.723880
1874.806351,-23982.672521,10066.800811,-69408.252119
1874.808895,26203.290347,-11843.295072,-83351.190182
1874.811440,-11843.295072,5329.482782,-73851.606007
1874.813985,23094.425390,-4293.194464,-75230.577904
1874.816529,-5625.565159,6661.853478,-76149.892501
1874.819074,27091.537477,6957.935855,-78448.178995
1874.821619,-7846.182985,15988.448347,-76303.111601
1874.824163,15692.365970,1480.411884,-84883.381178
1874.826708,-18357.107362,-4885.359217,-80440.027290
1874.829253,5921.647536,2368.659014,-74924.139704
1874.831797,-17764.942608,-25167.002028,-80133.589091
1874.834342,6513.812290,27091.537477,-62053.735338
1874.836887,-16728.654289,-30200.402434,-97600.566445
1874.839431,16432.571912,1036.288319,-75690.235202
1874.841976,888.247130,-23982.672521,-86568.791274
1874.844521,-19245.354492,-6217.729913,-72319.415011
1874.847065,13915.871710,-11991.336260,-75996.673402
1874.849610,-2368.659014,-2220.617826,-73698.386908
1874.852155,29016.072926,-6809.894666,-84117.285680
1874.854699,-8142.265362,6957.935855,-72472.634111
1874.857244,-4737.318029,-9622.677246,-76762.768900
1874.859789,-8734.430116,-9030.512492,-74004.825107
1874.862333,-8438.347739,-3701.029710,-76762.768900
1874.864878,-1332.370696,-7105.977043,-76609.549800
1874.867423,-6957.935855,-6809.894666,-75996.673402
1874.869967,9918.759623,-24870.919651,-81359.341888
1874.872512,-18061.024985,-1628.453072,-70634.004916
1874.875057,7994.224174,-24722.878463,-79980.369991
1874.877601,-21910.095883,5773.606348,-68642.156621
1874.880146,24574.837274,-14804.118840,-82738.313784
1874.882691,6365.771101,1628.453072,-73238.729609
1874.885235,10955.047942,-10807.006753,-80746.465489
1874.887780,11991.336260,-9326.594869,-81052.903688
1874.890325,-20725.766376,2072.576638,-79367.493593
1874.892869,26499.372724,5625.565159,-79061.055394
1874.895414,-15100.201217,13915.871710,-66956.746525
1874.897959,-2664.741391,13471.748144,-73085.510509
1874.900513,-4885.359217,13323.706956,-75077.358804
1874.903068,16284.530724,-8586.388927,-83351.190182
1874.905622,-24870.919651,23538.548956,-67263.184724
1874.908176,20725.766376,-10955.047942,-85649.476676
1874.910731,-30052.361245,17912.983796,-67569.622924
1874.913285,20281.642811,-14508.036463,-86875.229473
1874.915839,-10658.965565,13027.624579,-70327.566716
1874.918394,25611.125593,-11547.212695,-79367.493593
1874.920948,-11547.212695,9474.636058,-71859.757712
1874.923502,23982.672521,-1332.370696,-82278.656485
1874.926057,-18949.272115,19689.478057,-74924.139704
1874.928611,13619.789333,7550.100608,-81972.218286
1874.931166,-11695.253884,5773.606348,-77988.521696
1874.933720,-2368.659014,3256.906145,-79980.369991
1874.936274,16728.654289,-5477.523971,-77528.864398
1874.938829,-39526.997303,-740.205942,-70021.128517
1874.941383,17616.901420,1036.288319,-75383.797003
1874.943937,-54923.280896,148.041188,-75537.016103
1874.946492,49149.674549,-25018.960840,-82585.094684
1874.949046,-44560.397708,7994.224174,-64352.021832
1874.951600,38638.750172,-34937.720462,-89479.954166
1874.954155,-25315.043216,148.041188,-75077.358804
1874.956709,26055.249158,-10214.842000,-85955.914876
1874.959264,-13027.624579,888.247130,-77222.426198
1874.961818,29016.072926,-592.164754,-74617.701505
1874.964372,-17616.901420,-2960.823768,-81665.780087
1874.966927,20429.683999,-11843.295072,-79214.274493
1874.969481,-14508.036463,-6957.935855,-79673.931792
1874.972035,8290.306550,-3552.988522,-74770.920605
1874.974590,-8586.388927,-2072.576638,-71246.881314
1874.977144,-25315.043216,6069.688724,-66803.527426
1874.979699,24722.878463,-25167.002028,-83351.190182
1874.982253,-13175.665768,3404.947333,-66650.308326
1874.984807,23094.425390,-14359.995275,-85649.476676
1874.987362,-30496.484810,7105.977043,-70634.004916
1874.989916,46484.933158,-15988.448347,-78754.617194
1874.992470,-43968.232955,2812.782580,-72779.072310
1874.995025,44560.397708,-22946.384202,-85343.038477
1874.997579,-24870.919651,2220.617826,-72779.072310
1875.000133,59364.516548,-5477.523971,-85955.914876
1875.002696,-15396.283594,-2516.700203,-81665.780087
1875.005258,-4441.235652,11251.130318,-71553.319513
1875.007820,-10066.800811,-5033.400406,-81818.999186
1875.010382,-11251.130318,10066.800811,-76609.549800
1875.012944,8290.306550,-9474.636058,-78754.617194
1875.015507,-7105.977043,9178.553681,-72319.415011
1875.018069,7550.100608,-7846.182985,-78448.178995
1875.020631,-25018.960840,17024.736666,-72779.072310
1875.023193,19245.354492,-18505.148550,-88867.077768
1875.025755,-27979.784608,6069.688724,-71246.881314
1875.028317,20133.601622,-296.082377,-78448.178995
1875.030880,-1776.494261,11399.171507,-75383.797003
1875.033442,19837.519246,3701.029710,-81512.560987
1875.036004,-3404.947333,15840.407159,-75230.577904
1875.038566,15396.283594,1184.329507,-78907.836294
1875.041128,-40119.162056,11399.171507,-76456.330700
1875.043691,22502.260637,-10214.842000,-84883.381178
1875.046253,-17616.901420,-9030.512492,-77375.645298
1875.048815,-2960.823768,13175.665768,-66037.431928
1875.051377,10510.924376,-5625.565159,-72166.195912
1875.053939,-10066.800811,-1628.453072,-74464.482406
1875.056501,35825.967593,-15396.283594,-74924.139704
1875.059064,-37750.503042,-2072.576638,-72319.415011
1875.061626,30940.608376,-6957.935855,-79061.055394
1875.064188,-17912.983796,1332.370696,-81359.341888
1875.066750,32569.061448,-10955.047942,-85802.695776
1875.069312,-18801.230927,4589.276840,-74004.825107
1875.071875,4293.194464,-12139.377449,-80440.027290
1875.074437,-17320.819043,-9030.512492,-71706.538613
1875.076999,-9622.677246,-1036.288319,-76762.768900
1875.079561,8586.388927,-14508.036463,-80593.246390
1875.082123,-19097.313304,1036.288319,-68182.499322
1875.084685,32717.102636,-23094.425390,-83351.190182
1875.087248,-6661.853478,-2368.659014,-68029.280222
1875.089810,12435.459826,-15544.324782,-81206.122788
1875.092372,-15988.448347,6069.688724,-69561.471218
1875.094934,39823.079680,-17024.736666,-80440.027290
1875.097496,-32569.061448,-888.247130,-75690.235202
1875.100059,46632.974346,-15100.201217,-84117.285680
1875.102621,-24130.713709,6365.771101,-74770.920605
1875.105188,3108.864956,6661.853478,-79214.274493
1875.107756,-17024.736666,-4441.235652,-80440.027290
1875.110325,-11695.253884,15544.324782,-67569.622924
1875.112893,3997.112087,-11399.171507,-84730.162079
1875.115462,-444.123565,17764.942608,-71553.319513
1875.118030,13323.706956,-14359.995275,-83504.409282
1875.120599,-21762.054695,17172.777854,-70327.566716
1875.123167,17024.736666,-7994.224174,-81512.560987
1875.125736,-26943.496289,12879.583391,-72319.415011
1875.128304,26203.290347,-17912.983796,-89173.515967
1875.130873,-17912.983796,3404.947333,-79673.931792
1875.133441,23834.631332,-1776.494261,-82891.532884
1875.136010,-6513.812290,11103.089130,-78754.617194
1875.138578,12435.459826,4441.235652,-80899.684589
1875.141146,-16728.654289,18357.107362,-75383.797003
1875.143715,4737.318029,-148.041188,-79827.150892
1875.146283,-19245.354492,1332.370696,-76762.768900
1875.148852,14063.912898,-6957.935855,-83197.971083
1875.151420,-3997.112087,-16580.613101,-85343.038477
1875.153989,5033.400406,17468.860231,-64658.460031
1875.156557,5181.441594,-3997.112087,-81052.903688
1875.159126,-10214.842000,-4145.153275,-67722.842023
1875.161694,42043.697506,-17912.983796,-72012.976812
1875.164263,-23834.631332,740.205942,-68948.594820
1875.166831,36566.173535,-18949.272115,-82278.656485
1875.169400,-14656.077652,5329.482782,-69408.252119
1875.171968,29164.114115,-8586.388927,-84270.504780
1875.174537,-18209.066173,2960.823768,-72166.195912
1875.177105,15692.365970,-11251.130318,-78141.740796
1875.179674,-20577.725188,-4145.153275,-78141.740796
1875.182242,-11103.089130,1184.329507,-73085.510509
1875.184810,9326.594869,-17024.736666,-80899.684589
1875.187379,-27091.537477,1332.370696,-67722.842023
1875.189947,21169.889941,-29164.114115,-83044.751983
1875.192516,-27683.702231,4441.235652,-68029.280222
1875.195084,17468.860231,-17024.736666,-84423.723880
1875.197653,-20281.642811,9030.512492,-68335.718422
1875.200221,45596.686027,-16136.489536,-83504.409282
1875.202790,-40859.367998,10214.842000,-64658.460031
1875.205358,48261.427418,-19097.313304,-81359.341888
1875.207931,-43079.985824,21317.931130,-73085.510509
1875.210503,21169.889941,444.123565,-79827.150892
1875.213076,-15248.242405,3997.112087,-86415.572174
1875.215649,9474.636058,7105.977043,-75690.235202
1875.218221,-3849.070898,1628.453072,-73545.167808
1875.220794,-148.041188,3256.906145,-81512.560987
1875.223366,-12583.501014,-1628.453072,-75843.454302
1875.225939,888.247130,1036.288319,-74924.139704
1875.228512,-3849.070898,-6661.853478,-76303.111601
1875.231084,-22058.137072,14804.118840,-67876.061123
1875.233657,36270.091158,-3552.988522,-74924.139704
1875.236229,-25759.166782,17468.860231,-68488.937521
1875.238802,25759.166782,-4293.194464,-82738.313784
1875.241375,-7698.141797,14804.118840,-73085.510509
1875.243947,25463.084405,1776.494261,-83351.190182
1875.246520,-5773.606348,5921.647536,-80746.465489
1875.249092,20281.642811,5477.523971,-73851.606007
1875.251665,-12731.542202,12731.542202,-79214.274493
1875.254238,-10807.006753,-4293.194464,-78141.740796
1875.256810,1036.288319,-2664.741391,-80286.808190
1875.259383,-19689.478057,-13027.624579,-77988.521696
1875.261955,31384.731941,-25167.002028,-84883.381178
1875.264528,-46336.891969,6957.935855,-70021.128517
1875.267101,41007.409187,-37602.461854,-85343.038477
1875.269673,-46484.933158,13619.789333,-57610.381450
1875.272246,38194.626607,-17764.942608,-83504.409282
1875.274818,-19689.478057,12139.377449,-68488.937521
1875.277391,29312.155303,-11843.295072,-83810.847481
1875.279964,-11399.171507,4293.194464,-66650.308326
1875.282536,16728.654289,-11991.336260,-79673.931792
1875.285109,-12879.583391,-2664.741391,-76303.111601
1875.287682,2812.782580,-6809.894666,-74004.825107
1875.290254,-12583.501014,-6957.935855,-72012.976812
1875.292827,296.082377,-14656.077652,-79980.369991
1875.295399,-4293.194464,-19689.478057,-77222.426198
1875.297972,148.041188,-10066.800811,-74770.920605
1875.300545,4885.359217,-15840.407159,-81052.903688
1875.303117,-25907.207970,3849.070898,-73238.729609
1875.305690,7698.141797,-23982.672521,-82431.875585
1875.308262,6069.688724,-1628.453072,-71400.100414
1875.310838,-9474.636058,-5329.482782,-82431.875585
1875.313414,33605.349767,-1628.453072,-86722.010374
1875.315990,9770.718434,12435.459826,-73545.167808
1875.318566,444.123565,12287.418637,-79061.055394
1875.321142,3108.864956,7550.100608,-74770.920605
1875.323717,-19985.560434,10658.965565,-78754.617194
1875.326293,22058.137072,-4885.359217,-83197.971083
1875.328869,-5625.565159,2072.576638,-78448.178995
1875.331445,-18801.230927,14656.077652,-72779.072310
1875.334021,13767.830521,-11991.336260,-81359.341888
1875.336597,-26795.455100,20133.601622,-68488.937521
1875.339173,11251.130318,-15396.283594,-87334.886772
1875.341748,-21021.848753,17764.942608,-64198.802732
1875.344324,25018.960840,-3849.070898,-84883.381178
1875.346900,-5625.565159,23834.631332,-69867.909418
1875.349476,35677.926404,-2368.659014,-81512.560987
1875.352052,-11695.253884,17468.860231,-73238.729609
1875.354628,8438.347739,-296.082377,-79214.274493
1875.357203,-43672.150578,2812.782580,-74924.139704
1875.359779,23094.425390,1036.288319,-81818.999186
1875.362355,-148.041188,-8586.388927,-74924.139704
1875.364931,-1776.494261,-6513.812290,-77069.207099
1875.367507,2368.659014,-12731.542202,-70480.785816
1875.370083,-3849.070898,-12879.583391,-75996.673402
1875.372659,-19393.395680,-16728.654289,-74464.482406
1875.375234,-13915.871710,1184.329507,-74004.825107
1875.377810,11843.295072,-21762.054695,-85343.038477
1875.380386,-9770.718434,17172.777854,-64198.802732
1875.382962,26351.331535,-11103.089130,-80593.246390
1875.385538,-15396.283594,-3552.988522,-74158.044206
1875.388114,15692.365970,-8586.388927,-80746.465489
1875.390690,-17468.860231,-888.247130,-76915.987999
1875.393265,17468.860231,-9474.636058,-73085.510509
1875.395841,-3552.988522,-10955.047942,-77835.302597
1875.398417,18801.230927,-17468.860231,-79827.150892
1875.400993,-11843.295072,-7550.100608,-81052.903688
1875.403569,148.041188,-4293.194464,-78294.959896
1875.406145,-23686.590144,-4737.318029,-77835.302597
1875.408720,-40415.244433,12139.377449,-65730.993728
1875.411296,39675.038491,-19541.436869,-82891.532884
1875.413875,-44560.397708,15840.407159,-68795.375720
1875.416453,60252.763679,-9326.594869,-93463.650756
1875.419032,-38490.708984,30200.402434,-66803.527426
1875.421610,33753.390955,296.082377,-80286.808190
1875.424188,-23982.672521,15988.448347,-71400.100414
1875.426767,21910.095883,-3701.029710,-78754.617194
1875.429345,-444.123565,4589.276840,-73851.606007
1875.431923,38786.791361,-5181.441594,-78601.398095
1875.434502,-22798.343014,740.205942,-78141.740796
1875.437080,3997.112087,-3552.988522,-76762.768900
1875.439659,-14359.995275,-4293.194464,-76609.549800
1875.442237,-17468.860231,9030.512492,-72779.072310
1875.444815,4293.194464,-6365.771101,-78754.617194
1875.447394,-7994.224174,17764.942608,-74311.263306
1875.449972,16580.613101,-6957.935855,-84576.942979
1875.452551,-16284.530724,21762.054695,-68642.156621
1875.455129,8290.306550,-5625.565159,-83657.628382
1875.457707,-21465.972318,22058.137072,-70021.128517
1875.460286,888.247130,-9918.759623,-78907.836294
1875.462864,5329.482782,12583.501014,-75996.673402
1875.465443,11399.171507,-21614.013506,-83657.628382
1875.468021,40267.203245,-18209.066173,-77069.207099
1875.470599,-48705.550984,-8734.430116,-74311.263306
1875.473178,2220.617826,-34641.638086,-78601.398095
1875.475756,-24426.796086,-740.205942,-70787.224015
1875.478335,19985.560434,-22206.178260,-84270.504780
1875.480913,-7550.100608,13323.706956,-66190.651027
1875.483491,28868.031738,-13027.624579,-85802.695776
1875.486070,-21317.931130,5181.441594,-71400.100414
1875.488648,11547.212695,-9030.512492,-79827.150892
1875.491226,-12731.542202,-3108.864956,-75996.673402
1875.493805,16136.489536,-13323.706956,-76609.549800
1875.496385,-4145.153275,-5033.400406,-77375.645298
1875.498965,22354.219448,-16876.695478,-78907.836294
1875.501544,-10955.047942,-11399.171507,-78907.836294
1875.504124,-2812.782580,148.041188,-75537.016103
1875.506704,-23538.548956,-1480.411884,-75537.016103
1875.509284,10362.883188,-12287.418637,-77835.302597
1875.511864,31384.731941,-16728.654289,-87641.324971
1875.514444,-6957.935855,4737.318029,-60981.201641
1875.517023,4589.276840,-1184.329507,-79827.150892
1875.519603,-4145.153275,14952.160028,-71400.100414
1875.522183,32272.979071,-4885.359217,-80899.684589
1875.524763,-40563.285622,20873.807564,-74464.482406
1875.527343,29164.114115,-2072.576638,-82585.094684
1875.529923,-444.123565,7550.100608,-71553.319513
1875.532502,28127.825796,-9770.718434,-85343.038477
1875.535082,592.164754,7105.977043,-75690.235202
1875.537662,-18061.024985,1924.535449,-77835.302597
1875.540242,-14211.954086,-6069.688724,-77835.302597
1875.542822,-4589.276840,4441.235652,-75537.016103
1875.545402,592.164754,-7105.977043,-76915.987999
1875.547981,-6365.771101,15544.324782,-75230.577904
1875.550561,16432.571912,-888.247130,-80593.246390
1875.553141,-18061.024985,23242.466579,-66497.089226
1875.555721,12731.542202,-11991.336260,-84883.381178
1875.558301,-28868.031738,23834.631332,-64658.460031
1875.560881,1924.535449,-9918.759623,-80133.589091
1875.563460,6365.771101,2368.659014,-80286.808190
1875.566040,32569.061448,-15692.365970,-77375.645298
1875.568620,-22058.137072,2368.659014,-82431.875585
1875.571200,15100.201217,-14952.160028,-75383.797003
1875.573780,-8142.265362,-1480.411884,-70940.443115
1875.576360,-13619.789333,-8882.471304,-75230.577904
1875.578939,5329.482782,-9474.636058,-73545.167808
1875.581519,-5773.606348,-8142.265362,-81359.341888
1875.584099,10807.006753,-6069.688724,-79367.493593
1875.586679,-37158.338288,18357.107362,-65424.555529
1875.589259,22354.219448,-18949.272115,-86722.010374
1875.591839,-25463.084405,5033.400406,-68642.156621
1875.594418,28127.825796,-25167.002028,-83810.847481
1875.596998,-6513.812290,-444.123565,-71400.100414
1875.599578,38342.667796,-23094.425390,-78601.398095
1875.602158,-3108.864956,-10510.924376,-70480.785816
1875.604738,10658.965565,-1628.453072,-76149.892501
1875.607318,-20725.766376,3404.947333,-69101.813920
1875.609897,34789.679274,-16136.489536,-79367.493593
1875.612477,-9326.594869,-2368.659014,-77222.426198
1875.615057,11399.171507,-17172.777854,-72472.634111
1875.617637,-3849.070898,-9474.636058,-73085.510509
1875.620217,-2960.823768,18949.272115,-77222.426198
1875.622798,-10362.883188,-7698.141797,-88407.420469
1875.625378,-30792.567187,30200.402434,-67109.965625
1875.627958,19245.354492,-7402.059420,-86875.229473
1875.630539,-10510.924376,20429.683999,-66190.651027
1875.633119,28868.031738,-11251.130318,-84117.285680
1875.635699,-6661.853478,10510.924376,-70327.566716
1875.638280,11547.212695,3108.864956,-74158.044206
1875.640860,-23094.425390,6513.812290,-78907.836294
1875.643441,10807.006753,0.000000,-78448.178995
1875.646021,-11695.253884,7402.059420,-74617.701505
1875.648601,13471.748144,6661.853478,-81512.560987
1875.651182,1184.329507,11251.130318,-76303.111601
1875.653762,444.123565,5625.565159,-78141.740796
1875.656343,-16728.654289,3404.947333,-75843.454302
1875.658923,-13619.789333,9030.512492,-73085.510509
1875.661503,-2960.823768,-14656.077652,-83197.971083
1875.664084,-2516.700203,16580.613101,-71400.100414
1875.666664,38786.791361,-21910.095883,-82585.094684
1875.669244,-24870.919651,6957.935855,-75537.016103
1875.671825,24278.754898,-22650.301825,-84730.162079
1875.674405,592.164754,-7254.018232,-69714.690318
1875.676986,5181.441594,-13027.624579,-72779.072310
1875.679566,1332.370696,-10362.883188,-76915.987999
1875.682146,25315.043216,-9474.636058,-76456.330700
1875.684727,-9030.512492,740.205942,-80133.589091
1875.687307,-23094.425390,5921.647536,-71553.319513
1875.689887,3404.947333,-22650.301825,-81818.999186
1875.692468,-26499.372724,5329.482782,-70327.566716
1875.695048,17912.983796,-26943.496289,-81359.341888
1875.697629,-17912.983796,2664.741391,-70787.224015
1875.700209,33753.390955,-26203.290347,-83964.066581
1875.702790,-18653.189738,2812.782580,-65118.117330
1875.705370,15988.448347,-12879.583391,-84270.504780
1875.707951,-25611.125593,8290.306550,-67416.403824
1875.710531,32717.102636,-17912.983796,-80899.684589
1875.713112,-18061.024985,5773.606348,-77375.645298
1875.715693,39675.038491,-15692.365970,-73698.386908
1875.718273,-39971.120868,10510.924376,-73545.167808
1875.720854,15988.448347,3997.112087,-83964.066581
1875.723435,-6661.853478,2220.617826,-84883.381178
1875.726015,-25759.166782,11251.130318,-80286.808190
1875.728596,444.123565,-592.164754,-79980.369991
1875.731176,3108.864956,5625.565159,-75690.235202
1875.733757,7846.182985,-9474.636058,-77988.521696
1875.736338,-10658.965565,9770.718434,-70480.785816
1875.738918,6513.812290,-3404.947333,-76609.549800
1875.741499,-27831.743419,9178.553681,-73085.510509
1875.744080,30348.443622,-5181.441594,-76303.111601
1875.746660,-9178.553681,6661.853478,-77682.083497
1875.749241,29460.196492,3997.112087,-81052.903688
1875.751821,-148.041188,14804.118840,-77069.207099
1875.754402,16580.613101,-3404.947333,-82431.875585
1875.756983,-32272.979071,17468.860231,-72625.853210
1875.759563,24722.878463,2960.823768,-75230.577904
1875.762144,-41303.491564,444.123565,-76149.892501
1875.764725,-444.123565,24870.919651,-69867.909418
1875.767305,-10214.842000,-31088.649564,-90399.268764
1875.769886,18505.148550,-296.082377,-75690.235202
1875.772466,-10066.800811,-27387.619854,-83964.066581
1875.775047,-25167.002028,-4441.235652,-66956.746525
1875.777628,20873.807564,-21762.054695,-81665.780087
1875.780208,-11695.253884,2072.576638,-70174.347617
1875.782789,40711.326810,-12287.418637,-81359.341888
1875.785370,-4885.359217,3701.029710,-76303.111601
1875.787950,14952.160028,-1924.535449,-75230.577904
1875.790531,-20429.683999,-1184.329507,-75537.016103
1875.793111,-148.041188,-10362.883188,-78294.959896
1875.795692,4293.194464,-12139.377449,-75230.577904
1875.798273,-740.205942,-16432.571912,-77835.302597
1875.800853,2960.823768,-27387.619854,-79827.150892
1875.803434,-15100.201217,2220.617826,-69867.909418
1875.806015,-2368.659014,-17320.819043,-81359.341888
1875.808595,-15988.448347,-296.082377,-74158.044206
1875.811176,-7550.100608,-18505.148550,-86262.353075
1875.813757,-8586.388927,7698.141797,-72012.976812
1875.816337,18505.148550,-11695.253884,-79367.493593
1875.818918,27683.702231,296.082377,-84117.285680
1875.821499,-10807.006753,14508.036463,-70327.566716
1875.824079,-22946.384202,20725.766376,-77528.864398
1875.826660,17912.983796,11695.253884,-77988.521696
1875.829241,-15988.448347,10066.800811,-78141.740796
1875.831821,31236.690752,-9178.553681,-84270.504780
1875.834402,-9326.594869,4145.153275,-74924.139704
1875.836983,3701.029710,-1184.329507,-74311.263306
1875.839563,-9326.594869,-1332.370696,-75843.454302
1875.842144,-37602.461854,19837.519246,-70327.566716
1875.844725,22206.178260,-14804.118840,-87181.667672
1875.847305,-15100.201217,24426.796086,-68029.280222
1875.849886,36566.173535,-888.247130,-88560.639569
1875.852467,-10362.883188,17172.777854,-70021.128517
1875.855047,22354.219448,-3108.864956,-81359.341888
1875.857628,-16136.489536,18949.272115,-68182.499322
1875.860209,1036.288319,-9030.512492,-77375.645298
1875.862789,-3404.947333,4145.153275,-78754.617194
1875.865370,54923.280896,-17468.860231,-78448.178995
1875.867951,19837.519246,-23686.590144,-82585.094684
1875.870531,-33605.349767,-10807.006753,-73391.948708
1875.873112,18653.189738,-29904.320057,-73238.729609
1875.875693,-40119.162056,444.123565,-68335.718422
1875.878273,15840.407159,-22058.137072,-82431.875585
1875.880854,-10362.883188,8438.347739,-68488.937521
1875.883435,24278.754898,-13323.706956,-84270.504780
1875.886015,-30200.402434,18061.024985,-65730.993728
1875.888596,19097.313304,-9030.512492,-78141.740796
1875.891177,-10955.047942,-1332.370696,-72472.634111
1875.893757,-10510.924376,-10807.006753,-75690.235202
1875.896338,6365.771101,-17616.901420,-74464.482406
1875.898919,13915.871710,-13323.706956,-79061.055394
1875.901499,-11103.089130,-13915.871710,-75383.797003
1875.904080,-28423.908173,-1332.370696,-76609.549800
1875.906661,18061.024985,-19837.519246,-85955.914876
1875.909241,-58772.351795,13767.830521,-65730.993728
1875.911822,40711.326810,-26351.331535,-89173.515967
1875.914403,-29756.278868,15988.448347,-68488.937521
1875.916984,53590.910201,-18061.024985,-93616.869856
1875.919564,-31976.896694,11399.171507,-78907.836294
1875.922145,15692.365970,12139.377449,-77375.645298
1875.924726,-23242.466579,13915.871710,-77528.864398
1875.927307,23686.590144,1036.288319,-81206.122788
1875.929888,-13915.871710,5625.565159,-74311.263306
1875.932468,34789.679274,-9326.594869,-82431.875585
1875.935049,-23686.590144,4885.359217,-75383.797003
1875.937630,-3256.906145,-2368.659014,-79520.712692
1875.940211,-12435.459826,-2812.782580,-75537.016103
1875.942791,-13027.624579,3256.906145,-78754.617194
1875.945372,29164.114115,-5181.441594,-87641.324971
1875.947953,-5921.647536,32124.937883,-66956.746525
1875.950534,34789.679274,-5921.647536,-85496.257577
1875.953115,-26055.249158,11251.130318,-70480.785816
1875.955695,29016.072926,-1480.411884,-82125.437386
1875.958276,-25611.125593,-1628.453072,-75077.358804
1875.960857,30348.443622,1628.453072,-80286.808190
1875.963438,-33161.226202,-8438.347739,-80899.684589
1875.966018,70319.564490,-28868.031738,-87181.667672
1875.968599,-45596.686027,-5921.647536,-70327.566716
1875.971180,-22798.343014,-24574.837274,-81052.903688
1875.973761,6365.771101,-18801.230927,-72166.195912
1875.976342,-21762.054695,444.123565,-75690.235202
1875.978922,20133.601622,-17616.901420,-83504.409282
1875.981503,-2516.700203,10066.800811,-67263.184724
1875.984084,4293.194464,-12583.501014,-84117.285680
1875.986665,-23982.672521,7402.059420,-70480.785816
1875.989245,19097.313304,-30496.484810,-86262.353075
1875.991826,-23686.590144,5625.565159,-72012.976812
1875.994407,27387.619854,-21169.889941,-75996.673402
1875.996988,-1332.370696,-13027.624579,-76609.549800
1875.999568,20133.601622,-4737.318029,-78754.617194
1876.002149,-28719.990550,2072.576638,-73238.729609
1876.004730,18357.107362,-12139.377449,-83044.751983
1876.007311,-23538.548956,5033.400406,-80133.589091
1876.009892,19837.519246,-18357.107362,-78448.178995
1876.012472,-11991.336260,1036.288319,-76149.892501
1876.015052,13175.665768,10807.006753,-81512.560987
1876.017632,-11695.253884,-2368.659014,-84117.285680
1876.020213,-41599.573940,26647.413912,-71706.538613
1876.022793,16728.654289,-3404.947333,-84730.162079
1876.025373,-8586.388927,9918.759623,-64964.898230
1876.027954,22798.343014,-14211.954086,-84576.942979
1876.030534,11251.130318,10214.842000,-70327.566716
1876.033114,25611.125593,-1036.288319,-75230.577904
1876.035694,-30348.443622,12731.542202,-73851.606007
1876.038275,20133.601622,1184.329507,-75690.235202
1876.040855,-18061.024985,8734.430116,-78294.959896
1876.043435,-7994.224174,11843.295072,-78448.178995
1876.046015,11695.253884,-740.205942,-81206.122788
1876.048596,-10658.965565,14211.954086,-74311.263306
1876.051176,3256.906145,-7550.100608,-85802.695776
1876.053756,-32865.143825,14211.954086,-66190.651027
1876.056336,14656.077652,-16284.530724,-87641.324971
1876.058917,-5477.523971,18801.230927,-68335.718422
1876.061497,15692.365970,-19245.354492,-74311.263306
1876.064077,-8734.430116,-2664.741391,-64658.460031
1876.066658,43672.150578,-18949.272115,-78294.959896
1876.069238,-36122.049970,2072.576638,-71093.662214
1876.071818,10955.047942,-10510.924376,-80899.684589
1876.074398,-6661.853478,2368.659014,-72166.195912
1876.076979,13767.830521,-5329.482782,-81359.341888
1876.079559,-2812.782580,-2368.659014,-74004.825107
1876.082139,10807.006753,-17172.777854,-83504.409282
1876.084719,-16728.654289,-9474.636058,-78294.959896
1876.087300,-11547.212695,-3849.070898,-75077.358804
1876.089880,-592.164754,-28275.866984,-78601.398095
1876.092460,-12583.501014,-6661.853478,-70634.004916
1876.095041,31236.690752,-19689.478057,-82738.313784
1876.097621,-17172.777854,2368.659014,-68029.280222
1876.100201,40711.326810,-15692.365970,-84117.285680
1876.102781,-40711.326810,4293.194464,-71553.319513
1876.105362,28423.908173,-18653.189738,-79061.055394
1876.107942,-33309.267390,1480.411884,-82125.437386
1876.110522,63805.752200,-5773.606348,-83044.751983
1876.113102,-32421.020260,21614.013506,-70480.785816
1876.115683,28127.825796,10510.924376,-85343.038477
1876.118262,-19245.354492,-5033.400406,-80286.808190
1876.120841,-23834.631332,10066.800811,-75537.016103
1876.123420,9474.636058,-14063.912898,-80593.246390
1876.125999,-7254.018232,9770.718434,-66037.431928
1876.128577,8882.471304,-11695.253884,-82431.875585
1876.131156,-13471.748144,17616.901420,-68642.156621
1876.133735,23686.590144,-6957.935855,-85036.600278
1876.136314,-29756.278868,17764.942608,-71246.881314
1876.138893,26795.455100,-296.082377,-83197.971083
1876.141472,-11695.253884,21169.889941,-71093.662214
1876.144051,26795.455100,-4145.153275,-84883.381178
1876.146630,-13619.789333,13619.789333,-76456.330700
1876.149209,15988.448347,-4293.194464,-80286.808190
1876.151788,-6809.894666,-9326.594869,-82278.656485
1876.154367,7698.141797,6809.894666,-75690.235202
1876.156946,-34345.555709,-13471.748144,-74770.920605
1876.159525,18949.272115,-14804.118840,-78141.740796
1876.162104,4737.318029,-18357.107362,-76762.768900
1876.164683,-28719.990550,-11547.212695,-74158.044206
1876.167262,18357.107362,-29904.320057,-86109.133975
1876.169841,-34197.514520,12287.418637,-67569.622924
1876.172420,26203.290347,-15840.407159,-88100.982270
1876.174999,-2072.576638,1480.411884,-70021.128517
1876.177578,28423.908173,-8734.430116,-79520.712692
1876.180156,-17764.942608,-3701.029710,-73391.948708
1876.182735,22206.178260,-14359.995275,-81206.122788
1876.185314,-3404.947333,-4589.276840,-78141.740796
1876.187893,10362.883188,-19097.313304,-75690.235202
1876.190472,-14211.954086,-5033.400406,-74770.920605
1876.193051,0.000000,-6513.812290,-79214.274493
1876.195630,2960.823768,-20873.807564,-81359.341888
1876.198209,-32569.061448,12879.583391,-66037.431928
1876.200788,31680.814318,-22058.137072,-86722.010374
1876.203367,-59216.475360,14804.118840,-73391.948708
1876.205946,69283.276171,-7254.018232,-86568.791274
1876.208525,-54479.157331,39230.914926,-54086.342159
1876.211104,31384.731941,-1628.453072,-87028.448573
1876.213683,2368.659014,19985.560434,-68488.937521
1876.216262,18357.107362,-5033.400406,-83197.971083
1876.218839,-4441.235652,3849.070898,-75996.673402
1876.221417,19097.313304,-4145.153275,-79980.369991
1876.223995,-22946.384202,4885.359217,-72012.976812
1876.226573,3997.112087,-9178.553681,-84117.285680
1876.229150,-5329.482782,-3108.864956,-82278.656485
1876.231728,-13619.789333,3404.947333,-76915.987999
1876.234306,18209.066173,-1924.535449,-79980.369991
1876.236884,-28868.031738,27831.743419,-69255.033019
1876.239461,8290.306550,-10658.965565,-84730.162079
1876.242039,-18949.272115,22058.137072,-70174.347617
1876.244617,20133.601622,-12731.542202,-85649.476676
1876.247194,2220.617826,3997.112087,-75383.797003
1876.249772,53294.827824,-12139.377449,-82891.532884
1876.252350,-44856.480085,6217.729913,-72166.195912
1876.254928,34049.473332,-13323.706956,-75077.358804
1876.257505,-10658.965565,-2960.823768,-77069.207099
1876.260083,-5625.565159,-12139.377449,-71093.662214
1876.262661,3701.029710,-8586.388927,-74617.701505
1876.265239,3997.112087,-4737.318029,-78754.617194
1876.267816,0.000000,-4885.359217,-74004.825107
1876.270394,-888.247130,-6217.729913,-79367.493593
1876.272972,22206.178260,-27831.743419,-89326.735067
1876.275549,-30940.608376,10066.800811,-68335.718422
1876.278127,32717.102636,-19985.560434,-85955.914876
1876.280705,-2516.700203,-3849.070898,-67263.184724
1876.283283,27979.784608,-23834.631332,-77375.645298
1876.285860,-14952.160028,-1184.329507,-71859.757712
1876.288438,20133.601622,-12731.542202,-74924.139704
1876.291016,-12435.459826,-2220.617826,-74924.139704
1876.293594,16876.695478,-5625.565159,-78448.178995
1876.296171,3108.864956,-10362.883188,-78141.740796
1876.298749,-21910.095883,14063.912898,-74770.920605
1876.301327,6809.894666,2516.700203,-78141.740796
1876.303904,-14359.995275,7402.059420,-86568.791274
1876.306482,-23982.672521,7402.059420,-85189.819378
1876.309060,-32865.143825,20429.683999,-69255.033019
1876.311638,46188.850781,-13323.706956,-82585.094684
1876.314215,-18209.066173,-1332.370696,-78754.617194
1876.316793,42043.697506,-7994.224174,-80286.808190
1876.319371,-20725.766376,6069.688724,-76915.987999
1876.321948,13175.665768,-4441.235652,-81512.560987
1876.324524,-5477.523971,-6365.771101,-80286.808190
1876.327101,3404.947333,8290.306550,-78448.178995
1876.329678,4737.318029,2960.823768,-75843.454302
1876.332255,-6661.853478,18209.066173,-74158.044206
1876.334831,-5033.400406,-4293.194464,-84270.504780
1876.337408,-10658.965565,7550.100608,-74924.139704
1876.339985,9622.677246,-15840.407159,-81359.341888
1876.342562,-20725.766376,29016.072926,-62666.611736
1876.345138,1776.494261,-28719.990550,-87641.324971
1876.347715,12435.459826,-3552.988522,-72625.853210
1876.350292,21465.972318,-15988.448347,-72319.415011
1876.352869,-35677.926404,-15396.283594,-75383.797003
1876.355445,15248.242405,-11547.212695,-79061.055394
1876.358022,-15396.283594,4885.359217,-72012.976812
1876.360599,12731.542202,-11399.171507,-86109.133975
1876.363176,5921.647536,1628.453072,-70480.785816
1876.365752,-4441.235652,-4441.235652,-77988.521696
1876.368329,-6365.771101,-9326.594869,-78448.178995
1876.370906,-10214.842000,-9178.553681,-78907.836294
1876.373483,1036.288319,-23538.548956,-77682.083497
1876.376059,-18505.148550,-3997.112087,-67263.184724
1876.378636,38786.791361,-23242.466579,-80133.589091
1876.381213,-22502.260637,5625.565159,-67109.965625
1876.383790,34937.720462,-15692.365970,-84117.285680
1876.386366,-30200.402434,4737.318029,-72779.072310
1876.388943,20577.725188,-16728.654289,-79827.150892
1876.391520,-39823.079680,8142.265362,-79827.150892
1876.394097,76981.417968,-7105.977043,-82738.313784
1876.396673,-50185.962868,27683.702231,-68335.718422
1876.399250,34049.473332,10214.842000,-86568.791274
1876.401827,13175.665768,-4145.153275,-79827.150892
1876.404404,-36122.049970,14804.118840,-72166.195912
1876.406980,19689.478057,-22058.137072,-81052.903688
1876.409557,-6513.812290,10807.006753,-67876.061123
1876.412134,7698.141797,-9326.594869,-82278.656485
1876.414711,-7846.182985,9918.759623,-71859.757712
1876.417287,27387.619854,-8290.306550,-84730.162079
1876.419864,-34049.473332,20725.766376,-70940.443115
